timestamp(unix),attitude_roll(radians),attitude_pitch(radians),attitude_yaw(radians),rotation_rate_x(radians/s),rotation_rate_y(radians/s),rotation_rate_z(radians/s),gravity_x(G),gravity_y(G),gravity_z(G),user_acc_x(G),user_acc_y(G),user_acc_z(G),magnetic_field_x(microteslas),magnetic_field_y(microteslas),magnetic_field_z(microteslas),latitude(degree),longitude(degree),altitude(meter),speed(m/s),course(degree),timestamp(unix),User Mark
1537456269.250928,0.252153,0.584926,-0.499608,-0.006092,0.043282,0.016907,0.208013,-0.552138,-0.807388,-0.009175,0.004500,0.003250,29.329773,-17.438953,-35.412781,,,,,,,
1537456269.280795,0.252145,0.583666,-0.498587,-0.067538,-0.003369,0.011564,0.208179,-0.551087,-0.808062,0.000225,-0.007583,0.001544,29.264128,-17.608757,-35.851807,,,,,,,
1537456269.310662,0.251103,0.581732,-0.495982,-0.080673,0.019603,0.067166,0.207602,-0.549472,-0.809309,0.001367,-0.023190,0.009856,29.035112,-17.566879,-35.692139,,,,,,,
1537456269.340529,0.251236,0.580409,-0.492603,-0.041355,0.065272,0.047627,0.207890,-0.548366,-0.809986,-0.020756,0.002315,-0.010342,29.268347,-17.588520,-35.708679,,,,,,,
1537456269.370396,0.252483,0.581128,-0.492158,0.070628,0.020829,-0.021425,0.208802,-0.548967,-0.809343,-0.007706,0.014650,-0.033354,29.209677,-17.939968,-35.979675,,,,,,,
1537456269.400264,0.253429,0.582139,-0.493795,-0.004958,0.016095,-0.045760,0.209428,-0.549812,-0.808608,-0.002290,-0.010689,0.003920,29.223555,-17.910244,-35.864929,,,,,,,
1537456269.430131,0.253536,0.582241,-0.492292,0.018171,0.026203,0.082282,0.209500,-0.549897,-0.808531,0.009143,-0.025375,-0.024263,29.180223,-17.775841,-35.885071,,,,,,,
1537456269.459998,0.255956,0.583848,-0.490108,0.095349,0.183080,0.049243,0.211232,-0.551239,-0.807166,-0.005727,-0.000855,-0.001367,29.440346,-17.471809,-35.601318,,,,,,,
1537456269.489865,0.265974,0.588576,-0.487590,0.136397,0.647064,0.160202,0.218620,-0.555177,-0.802486,-0.004890,-0.038054,0.071865,29.290070,-17.954807,-35.528503,,,,,,,
1537456269.519733,0.295166,0.600649,-0.479518,0.610561,1.499405,0.429452,0.239983,-0.565178,-0.789292,-0.028023,-0.069542,0.035279,30.094851,-18.604370,-34.768127,,,,,,,
1537456269.549600,0.329568,0.633494,-0.474982,1.141756,0.857113,0.375982,0.260838,-0.591964,-0.762589,0.045574,0.058502,-0.121460,30.596867,-19.123611,-33.560730,,,,,,,
1537456269.579467,0.342223,0.652947,-0.478635,0.154949,-0.026525,-0.085384,0.266551,-0.607530,-0.748236,0.038823,0.074693,-0.069559,31.327299,-20.532650,-32.369629,,,,,,,
1537456269.609334,0.333818,0.644264,-0.476540,-0.486039,-0.227635,0.050899,0.261972,-0.600610,-0.755406,-0.004145,-0.047172,0.055211,31.198200,-20.297699,-32.702637,,,,,,,
1537456269.639201,0.321460,0.635562,-0.466017,-0.214519,-0.209611,0.118286,0.254259,-0.593630,-0.763515,0.003767,0.022799,0.023983,31.098064,-20.175686,-32.965393,,,,,,,
1537456269.669069,0.315341,0.632341,-0.465822,-0.055767,-0.144706,-0.095439,0.250174,-0.591035,-0.766871,-0.039068,0.026063,0.012797,30.671854,-19.735332,-33.154785,,,,,,,
1537456269.698936,0.311111,0.630083,-0.467497,-0.142627,-0.311137,-0.062062,0.247335,-0.589212,-0.769191,0.040491,-0.038291,-0.047597,30.801941,-19.816803,-33.325073,,,,,,,
1537456269.728803,0.295865,0.617904,-0.463068,-0.574397,-0.413429,0.074858,0.237655,-0.579328,-0.779679,0.034913,-0.078463,0.000886,30.443287,-19.661713,-34.066956,,,,,,,
1537456269.758670,0.281588,0.606360,-0.453971,-0.264709,-0.240569,0.056099,0.228343,-0.569880,-0.789365,0.004201,0.021403,0.016492,30.242785,-19.470573,-34.396301,,,,,,,
1537456269.788538,0.275169,0.605827,-0.455213,0.100293,-0.284584,-0.059864,0.223354,-0.569442,-0.791106,-0.018245,0.032851,-0.050752,30.068510,-19.107079,-34.631348,,,,,,,
1537456269.818405,0.261590,0.600991,-0.462409,-0.362631,-0.992388,-0.383530,0.213301,-0.565460,-0.796717,0.047014,0.077484,-0.154653,29.627592,-19.044796,-34.787048,,,,,,,
1537456269.848272,0.234794,0.582786,-0.469188,-0.516972,-0.719582,-0.251780,0.194241,-0.550352,-0.812024,0.023013,-0.031115,0.035779,29.065727,-17.990482,-36.056519,,,,,,,
1537456269.878139,0.223419,0.576842,-0.472209,0.056918,-0.458524,-0.143746,0.185713,-0.545379,-0.817357,0.007539,0.043335,-0.046001,28.589815,-17.875683,-36.443848,,,,,,,
1537456269.908006,0.208216,0.578702,-0.483309,0.141691,-0.965837,-0.290117,0.173056,-0.546938,-0.819091,-0.032462,0.035662,-0.060990,28.122335,-17.552834,-37.079468,,,,,,,
1537456269.937874,0.185785,0.581564,-0.493545,0.113203,-0.963717,-0.349955,0.154351,-0.549332,-0.821225,-0.062127,0.078644,0.002881,27.628456,-17.745808,-37.447266,,,,,,,
1537456269.967741,0.167493,0.581165,-0.511039,0.099821,-0.766282,-0.598736,0.139341,-0.548998,-0.824127,-0.012418,0.027560,0.034500,26.615816,-17.462704,-38.153381,,,,,,,
1537456269.997608,0.164523,0.585627,-0.529414,0.346364,-0.295855,-0.301279,0.136490,-0.552722,-0.822113,0.070694,-0.125043,0.012603,26.228493,-17.358559,-38.488403,,,,,,,
1537456270.027475,0.167327,0.594228,-0.533971,0.208387,0.372740,-0.008469,0.137998,-0.559869,-0.817009,-0.029508,-0.070502,0.132286,26.069111,-17.998215,-38.802612,,,,,,,
1537456270.057343,0.186938,0.598974,-0.536449,0.211197,0.553838,-0.068175,0.153497,-0.563795,-0.811525,0.090735,-0.047411,-0.037581,26.350647,-18.002102,-38.278137,,,,,,,
1537456270.087210,0.192758,0.608056,-0.538857,0.284224,-0.082137,-0.001616,0.157230,-0.571273,-0.805559,0.033398,-0.003846,-0.050459,26.692057,-18.138683,-37.876587,,,,,,,
1537456270.117076,0.191937,0.612542,-0.540023,0.081481,0.005738,-0.012077,0.156078,-0.574949,-0.803164,-0.033871,0.022810,0.004077,26.697313,-18.485973,-38.026917,,,,,,,
1537456270.146943,0.200167,0.615021,-0.540500,0.124586,0.419803,0.001190,0.162399,-0.576976,-0.800454,-0.036544,0.029261,0.028328,26.842741,-18.542458,-37.819763,,,,,,,
1537456270.176810,0.214063,0.620797,-0.542756,0.249683,0.330250,-0.046697,0.172795,-0.581684,-0.794850,0.000850,0.017963,-0.028148,26.985905,-18.600983,-37.567993,,,,,,,
1537456270.206678,0.222062,0.628086,-0.549797,0.303295,0.021766,-0.213554,0.178209,-0.587597,-0.789285,-0.011720,0.031093,-0.022314,27.374031,-18.852913,-37.128235,,,,,,,
1537456270.236545,0.232918,0.634203,-0.558137,0.243916,0.306070,-0.162394,0.185934,-0.592536,-0.783792,-0.029943,0.001411,-0.004859,27.805548,-19.090797,-36.783936,,,,,,,
1537456270.266412,0.248598,0.641723,-0.566987,0.388299,0.392554,-0.182110,0.197099,-0.598577,-0.776439,-0.018327,0.014440,-0.019596,28.199923,-19.444496,-36.526001,,,,,,,
1537456270.296279,0.267219,0.653606,-0.577264,0.506765,0.360231,-0.180113,0.209628,-0.608053,-0.765720,0.018308,0.014242,-0.016522,28.668520,-19.732574,-36.101440,,,,,,,
1537456270.326146,0.284372,0.667855,-0.589377,0.448285,0.346248,-0.094207,0.220278,-0.619303,-0.753619,0.016721,-0.075368,0.002810,28.857513,-20.049385,-35.658875,,,,,,,
1537456270.356014,0.299508,0.675022,-0.590835,0.164690,0.556044,0.056660,0.230344,-0.624915,-0.745938,0.006015,-0.044244,0.044858,29.265730,-20.309902,-35.032349,,,,,,,
1537456270.385881,0.324289,0.682382,-0.590480,0.318313,1.041284,0.137533,0.247284,-0.630644,-0.735622,-0.037521,-0.035204,0.059306,29.734735,-20.468143,-34.664490,,,,,,,
1537456270.415748,0.352119,0.696153,-0.584755,0.383780,1.080604,0.387607,0.264638,-0.641271,-0.720235,-0.058110,-0.028163,0.006688,30.575703,-21.209274,-33.226501,,,,,,,
1537456270.445615,0.382091,0.707926,-0.573056,0.351750,1.349740,0.463584,0.283268,-0.650259,-0.704927,0.047055,-0.046625,0.088793,31.016432,-21.521368,-32.376648,,,,,,,
1537456270.475483,0.408501,0.727539,-0.563762,0.493846,1.291970,0.368171,0.296660,-0.665034,-0.685363,0.009798,0.019709,0.175689,31.971762,-22.456100,-30.757812,,,,,,,
1537456270.505350,0.443395,0.740003,-0.563207,0.249493,0.794729,0.079322,0.316808,-0.674290,-0.667057,0.000864,0.096623,-0.127956,32.473221,-22.953497,-30.137878,,,,,,,
1537456270.535217,0.464019,0.740214,-0.568995,-0.008526,0.436169,-0.201435,0.330434,-0.674446,-0.660255,0.036998,0.041160,-0.141015,33.367115,-23.066174,-29.074585,,,,,,,
1537456270.565084,0.469315,0.735577,-0.569237,-0.295638,0.120385,0.037833,0.335337,-0.671015,-0.661277,-0.041117,-0.067876,-0.018044,33.174694,-22.958338,-28.867493,,,,,,,
1537456270.594951,0.475327,0.724314,-0.547432,-0.673113,1.136001,0.527274,0.342743,-0.662622,-0.665928,-0.112015,-0.018027,0.051304,33.669464,-22.641642,-28.644409,,,,,,,
1537456270.624819,0.487580,0.722481,-0.517176,-0.170458,0.814010,0.689872,0.351445,-0.661248,-0.662750,-0.016988,-0.006965,-0.057511,33.970196,-23.018341,-28.173523,,,,,,,
1537456270.654686,0.484538,0.729065,-0.500022,-0.005001,0.308741,0.272868,0.347392,-0.666172,-0.659949,0.091923,-0.024273,0.058799,34.184753,-23.532928,-27.715210,,,,,,,
1537456270.684553,0.511623,0.729843,-0.493989,0.115281,1.591981,0.142407,0.364883,-0.666753,-0.649847,-0.084473,-0.045939,0.084493,34.196613,-23.624359,-27.112000,,,,,,,
1537456270.714420,0.571892,0.752894,-0.494156,1.092602,2.054681,0.572513,0.394938,-0.683753,-0.613600,0.047063,-0.045739,-0.155519,35.302059,-24.254379,-24.967896,,,,,,,
1537456270.744287,0.639179,0.797333,-0.523047,1.839139,1.306663,0.023665,0.416751,-0.715495,-0.560701,0.119153,0.012309,0.002488,35.949203,-25.010996,-23.278931,,,,,,,
1537456270.774155,0.710447,0.833601,-0.572352,1.410937,1.085627,-0.155994,0.438400,-0.740357,-0.509586,-0.110611,-0.009369,0.011081,36.795162,-26.242043,-20.233948,,,,,,,
1537456270.804022,0.786537,0.872279,-0.612122,2.157576,2.118765,0.709700,0.455246,-0.765796,-0.454210,-0.366425,-0.083645,0.015566,37.395576,-27.704874,-17.129700,,,,,,,
1537456270.833889,0.921998,0.963907,-0.702095,4.133008,1.877421,1.058987,0.454433,-0.821426,-0.344601,0.134114,0.059372,-0.273640,37.112347,-29.139517,-14.224915,,,,,,,
1537456270.863756,1.145331,1.045683,-0.902248,4.529977,1.931685,0.303927,0.456617,-0.865267,-0.206913,-0.010389,0.008242,0.066532,36.858273,-31.933977,-7.384033,,,,,,,
1537456270.893624,1.458181,1.099485,-1.176472,4.926818,3.095241,0.804583,0.451178,-0.890974,-0.051026,0.006220,-0.155855,0.143509,36.365257,-32.551300,-3.401428,,,,,,,
1537456270.923491,1.928587,1.105846,-1.549061,5.604074,5.410779,1.021786,0.419983,-0.893844,0.157024,-0.082703,0.009124,0.072788,34.089787,-33.221729,7.714539,,,,,,,
1537456270.953358,2.355140,1.069665,-1.878164,4.165064,3.768595,2.226053,0.340064,-0.877039,0.339348,-0.188163,-0.232076,-0.096138,31.791183,-32.958252,13.432922,,,,,,,
1537456270.983225,2.609949,1.051570,-2.051276,0.767757,2.700861,1.344661,0.251553,-0.868203,0.427719,-0.055416,-0.075171,-0.087539,26.775896,-33.054287,20.560791,,,,,,,
1537456271.013092,2.669221,1.071450,-2.066702,-0.760974,1.116148,0.058484,0.217877,-0.877896,0.426414,-0.000608,0.086499,0.008156,25.311441,-33.502281,21.389465,,,,,,,
1537456271.042960,2.689739,1.079320,-2.060407,0.040052,1.476750,0.337984,0.206060,-0.881637,0.424565,-0.277776,0.072082,-0.168401,24.029240,-34.233734,21.706299,,,,,,,
1537456271.072827,2.780638,1.091432,-2.106980,-0.286934,1.387869,0.975158,0.162886,-0.887288,0.431494,-0.072722,0.366552,-0.280951,23.005795,-34.635445,22.336853,,,,,,,
1537456271.102694,2.833740,1.107564,-2.137721,-0.510047,0.675056,0.162227,0.135399,-0.894613,0.425835,0.118660,0.138296,-0.086037,20.821705,-35.614201,22.809692,,,,,,,
1537456271.132562,2.814777,1.117016,-2.104337,-0.404088,-0.046463,-0.654046,0.140728,-0.898796,0.415163,-0.060177,0.284462,-0.230883,20.523897,-35.825363,22.798645,,,,,,,
1537456271.162430,2.767873,1.159658,-2.037605,-2.925340,1.175480,0.052243,0.145906,-0.916667,0.372067,-0.162111,0.368952,0.016192,20.524231,-36.579269,21.776855,,,,,,,
1537456271.192297,2.835806,1.274059,-2.052840,-3.465780,2.249416,2.521660,0.088025,-0.956296,0.278836,0.059390,0.516125,-0.302533,19.682821,-38.271584,20.436035,,,,,,,
1537456271.222164,-3.105057,1.363277,-2.333776,-1.597018,2.270008,2.057247,-0.007526,-0.978545,0.205894,-0.032773,0.615630,-0.239845,14.100393,-42.528320,18.128662,,,,,,,
1537456271.252031,-3.046378,1.358809,-2.386731,1.218178,-0.510893,-0.728248,-0.020003,-0.977615,0.209451,-0.037309,0.402786,-0.387826,12.209349,-43.038265,17.900757,,,,,,,
1537456271.281898,3.055669,1.306676,-2.234275,1.949849,-1.316756,-1.079405,0.022404,-0.965322,0.260097,0.209164,0.283056,-0.213863,12.848653,-41.888599,20.405945,,,,,,,
1537456271.311766,2.989857,1.241713,-2.197567,2.105992,-0.634868,-0.353704,0.048849,-0.946339,0.319463,0.271387,0.250309,0.043132,13.356479,-40.870010,21.877563,,,,,,,
1537456271.341633,2.964843,1.197564,-2.181170,0.722394,-0.018957,-0.416299,0.064113,-0.931154,0.358947,0.232961,0.052720,0.207811,13.024911,-38.631393,24.849182,,,,,,,
1537456271.371500,2.953846,1.205536,-2.172028,-0.760955,-0.064267,-0.033443,0.066668,-0.934031,0.350916,0.353421,-0.100164,0.388693,12.467638,-38.036697,25.500549,,,,,,,
1537456271.401367,2.901985,1.220277,-2.122716,-0.342399,-0.354918,-0.800924,0.081492,-0.939195,0.333575,0.166966,-0.084273,0.217100,11.888824,-37.718876,25.528625,,,,,,,
1537456271.431235,2.811211,1.214679,-2.040824,-0.012900,-0.430286,-1.024206,0.113100,-0.937258,0.329783,0.168456,-0.311552,0.380880,12.382227,-36.684807,25.837341,,,,,,,
1537456271.461102,2.728827,1.208179,-1.954773,-0.246768,0.153611,-1.094188,0.142295,-0.934972,0.324931,0.142816,-0.311030,0.430806,13.008941,-35.930466,26.185059,,,,,,,
1537456271.490969,2.623744,1.195097,-1.837967,-0.373154,0.158607,-1.606684,0.181631,-0.930251,0.318813,0.134211,-0.247163,0.256153,14.228616,-34.329361,26.537903,,,,,,,
1537456271.520836,2.554900,1.201369,-1.743582,-0.960921,0.869835,-0.203384,0.199898,-0.932534,0.300700,-0.007546,-0.368857,0.219670,14.543660,-34.157661,26.501831,,,,,,,
1537456271.550704,2.518442,1.207795,-1.676906,-0.263170,0.664637,-1.129751,0.207224,-0.934835,0.288342,-0.091013,-0.121470,0.026035,14.442570,-33.793884,26.457886,,,,,,,
1537456271.580571,2.476061,1.182543,-1.610216,0.393047,0.822706,-0.851124,0.233760,-0.925572,0.297781,0.118398,-0.207134,0.001582,14.923402,-32.896915,26.649780,,,,,,,
1537456271.610438,2.503660,1.177841,-1.599304,-0.480522,1.477628,0.122489,0.228043,-0.923781,0.307611,0.066498,-0.235871,-0.025583,14.306240,-31.729071,27.479248,,,,,,,
1537456271.640305,2.476621,1.198899,-1.533464,-1.175638,0.782005,-0.571132,0.224222,-0.931639,0.285960,-0.081460,-0.146257,-0.122828,13.716155,-31.999809,27.458679,,,,,,,
1537456271.670173,2.414646,1.203053,-1.453298,-0.310937,0.259033,-0.368071,0.238927,-0.933141,0.268629,0.044474,-0.329707,-0.127271,14.147408,-32.334351,26.777100,,,,,,,
1537456271.700040,2.444516,1.207590,-1.479047,0.281583,0.084391,0.621188,0.228078,-0.934762,0.272396,0.087627,-0.235861,-0.099849,14.125273,-32.137959,26.796143,,,,,,,
1537456271.729907,2.464617,1.202953,-1.506273,0.338033,-0.389518,-0.162097,0.225269,-0.933105,0.280300,0.010891,-0.080368,-0.058590,13.963322,-31.654776,26.742554,,,,,,,
1537456271.759774,2.465427,1.198823,-1.521916,0.173312,-0.423428,0.417762,0.227452,-0.931612,0.283486,0.100993,-0.219740,0.032798,14.387338,-31.474676,26.686707,,,,,,,
1537456271.789641,2.499867,1.208090,-1.571470,0.035990,-0.501215,0.672437,0.212379,-0.934940,0.284222,0.083626,-0.110653,-0.049755,14.452607,-31.130253,26.441101,,,,,,,
1537456271.819509,2.490839,1.214080,-1.588503,-0.016412,-1.234726,-0.074127,0.211540,-0.937049,0.277832,0.042046,-0.087472,-0.117707,14.508742,-31.355244,26.151062,,,,,,,
1537456271.849376,2.443604,1.209362,-1.585899,0.185253,-1.551657,0.066524,0.227262,-0.935391,0.270919,0.102069,-0.198231,-0.016753,16.095280,-31.218769,25.508362,,,,,,,
1537456271.879243,2.410051,1.210882,-1.607606,0.008336,-2.013085,0.382149,0.235272,-0.935927,0.262084,0.076282,-0.206361,-0.000685,17.068916,-30.895201,25.140137,,,,,,,
1537456271.909110,2.376189,1.233075,-1.636492,-0.415608,-2.008224,0.898175,0.229560,-0.943512,0.238929,0.050988,-0.042084,0.042809,18.445398,-31.519609,23.564148,,,,,,,
1537456271.938978,2.352303,1.248203,-1.672348,0.259910,-1.791083,0.409530,0.225043,-0.948417,0.223298,0.138361,-0.237527,0.046310,19.205313,-31.987461,22.840515,,,,,,,
1537456271.968845,2.374015,1.246489,-1.740699,0.613832,-1.142978,0.605873,0.221270,-0.947872,0.229301,0.159070,-0.120152,0.176812,20.171402,-31.728817,22.206970,,,,,,,
1537456271.998712,2.418637,1.253119,-1.811080,0.156807,-0.530302,0.680727,0.206659,-0.949963,0.234225,0.113195,-0.141299,0.183484,20.143661,-31.839542,22.216064,,,,,,,
1537456272.028579,2.460046,1.260988,-1.865220,0.156509,-0.221568,0.591614,0.192070,-0.952392,0.236767,0.061027,0.007736,0.093144,20.059486,-31.789038,22.275757,,,,,,,
1537456272.058447,2.524470,1.283348,-1.923793,-0.638653,0.880928,1.283475,0.164063,-0.958970,0.231213,0.185440,-0.040923,0.101795,18.908833,-32.688843,22.863342,,,,,,,
1537456272.088314,2.571581,1.333666,-1.942618,-1.727278,1.205921,0.575230,0.126770,-0.972016,0.197773,-0.045089,0.426743,-0.223438,17.660160,-33.520645,22.731079,,,,,,,
1537456272.118180,2.592535,1.402798,-1.895342,-2.333292,2.912041,1.469671,0.087264,-0.985921,0.142632,0.102098,-0.104548,0.288245,14.847610,-35.997917,21.954163,,,,,,,
1537456272.148047,2.910899,1.483100,-2.127414,-1.813364,2.751753,1.991615,0.020027,-0.996157,0.085266,-0.053093,-0.090406,-0.047027,12.350721,-37.387337,21.619690,,,,,,,
1537456272.177915,-2.796410,1.528449,-2.660391,-1.519558,0.711313,0.426192,-0.014324,-0.999103,0.039836,-0.043934,-0.098415,-0.063029,8.916534,-39.199692,20.686890,,,,,,,
1537456272.207782,-1.195169,1.532138,2.054438,-1.861651,1.656850,1.332236,-0.035953,-0.999253,-0.014178,0.221256,-0.175170,0.198611,8.343987,-40.161278,19.873657,,,,,,,
1537456272.237649,-0.956633,1.458450,1.883494,-1.175572,2.390383,2.071669,-0.091622,-0.993696,-0.064606,-0.070380,0.094022,-0.076279,4.279518,-41.727139,18.709778,,,,,,,
1537456272.267516,-0.999611,1.406783,1.992847,-0.169387,1.951170,1.332307,-0.137360,-0.986580,-0.088274,-0.015136,0.196571,-0.069258,1.735966,-42.365807,18.445007,,,,,,,
1537456272.297384,-1.069206,1.391027,2.110290,0.673940,1.168789,0.560456,-0.156777,-0.983885,-0.085972,0.115426,0.226561,-0.170208,-1.396711,-42.267326,18.791077,,,,,,,
1537456272.327251,-1.209642,1.393993,2.292087,1.096291,1.157413,0.028555,-0.164537,-0.984411,-0.062149,-0.011076,0.054388,-0.077667,-2.460346,-41.575607,19.482544,,,,,,,
1537456272.357118,-1.352550,1.414735,2.462863,1.150466,0.411558,-0.617867,-0.151741,-0.987847,-0.033653,-0.064735,-0.053001,-0.080651,-3.672285,-40.371712,20.980164,,,,,,,
1537456272.386985,-1.599317,1.443931,2.715406,1.260701,0.071716,-0.921395,-0.126475,-0.991963,0.003608,0.006769,-0.011561,-0.025566,-3.536583,-39.988426,21.837219,,,,,,,
1537456272.416853,-1.849183,1.456673,2.976312,0.715551,0.319029,-0.265909,-0.109491,-0.993495,0.031293,-0.042212,-0.126698,0.007586,-2.928839,-38.529686,23.392090,,,,,,,
1537456272.446720,-1.958172,1.454065,3.088389,0.310044,-0.266276,-0.056635,-0.107836,-0.993195,0.043996,-0.175107,-0.080887,-0.106679,-3.040205,-38.394398,23.813782,,,,,,,
1537456272.476587,-2.092776,1.455931,-3.080705,0.393619,-0.871927,-0.325851,-0.099350,-0.993410,0.057145,-0.008622,0.021502,-0.091569,-2.451010,-37.994961,24.328796,,,,,,,
1537456272.506454,-2.217418,1.458761,-2.977422,0.188826,-0.662099,-0.220963,-0.089231,-0.993731,0.067359,0.042386,-0.046583,-0.030524,-1.743322,-37.877831,24.808411,,,,,,,
1537456272.536322,-2.237242,1.459683,-2.971216,-0.156552,-0.430515,0.075305,-0.087158,-0.993833,0.068549,0.050079,0.029478,0.037820,-0.889694,-37.729866,25.245911,,,,,,,
1537456272.566189,-2.183573,1.462367,-3.033862,-0.208957,-0.222180,-0.014855,-0.088528,-0.994127,0.062240,0.029736,0.104937,0.031037,-0.783052,-37.813812,24.981995,,,,,,,
1537456272.596056,-2.227261,1.463818,-2.997513,0.302113,-0.317931,-0.094408,-0.084583,-0.994283,0.065167,-0.073254,0.025777,-0.059064,-0.595238,-38.106831,24.927490,,,,,,,
1537456272.625923,-2.275051,1.449447,-2.952460,0.428154,0.009079,0.465074,-0.092253,-0.992646,0.078377,-0.036882,-0.052459,0.030617,-0.447210,-37.605453,25.511536,,,,,,,
1537456272.655791,-2.298348,1.434099,-2.931130,0.495000,-0.380135,0.081170,-0.101768,-0.990672,0.090627,-0.153755,-0.094045,-0.000539,-0.681643,-37.376614,25.636108,,,,,,,
1537456272.685658,-2.456813,1.419651,-2.792121,1.046135,-0.731450,-0.131089,-0.095234,-0.988599,0.116623,-0.095440,-0.083193,0.109436,0.225355,-36.546677,26.430359,,,,,,,
1537456272.715525,-2.527093,1.381484,-2.717684,1.344756,0.720481,0.910400,-0.108496,-0.982134,0.153756,0.055502,-0.166227,0.205527,0.369366,-36.026367,27.094360,,,,,,,
1537456272.745392,-2.460979,1.347054,-2.770633,-0.997099,-0.366041,0.513955,-0.139623,-0.975074,0.172443,-0.062785,0.115790,-0.234958,-0.902094,-34.858673,27.972412,,,,,,,
1537456272.775260,-2.408405,1.352139,-2.845280,-0.681758,-1.024645,0.215816,-0.145172,-0.976190,0.161181,0.021118,0.010751,-0.112109,-0.512201,-35.376808,27.789490,,,,,,,
1537456272.805127,-2.322676,1.361993,-2.959874,-0.728431,-0.770434,0.486033,-0.151405,-0.978280,0.141581,0.057731,0.016762,-0.118265,0.626310,-36.449646,26.889526,,,,,,,
1537456272.834994,-2.201186,1.350345,-3.090048,-0.323042,0.130927,1.161494,-0.176641,-0.975799,0.128897,0.105687,0.160110,-0.055456,0.753925,-36.707275,26.477356,,,,,,,
1537456272.864861,-2.101955,1.330232,3.095488,-0.250757,-0.031220,0.686667,-0.205424,-0.971204,0.120681,0.060633,-0.022006,-0.037139,-0.152285,-36.991554,25.898682,,,,,,,
1537456272.894729,-2.046571,1.321117,3.036063,-0.300811,-0.060774,0.485036,-0.219650,-0.968992,0.113175,0.080399,-0.054690,0.084212,-0.351259,-37.075970,25.519226,,,,,,,
1537456272.924596,-1.973788,1.317013,2.966814,-0.567478,0.304522,0.231077,-0.230956,-0.967969,0.098462,0.159102,-0.093798,0.073504,-0.688255,-38.006943,24.981262,,,,,,,
1537456272.954463,-1.904720,1.305981,2.916948,0.056203,0.831732,0.614903,-0.247274,-0.965141,0.085783,0.062521,0.089057,-0.137846,-1.081699,-38.105698,24.652100,,,,,,,
1537456272.984330,-1.913010,1.291287,2.941739,0.340047,0.186727,0.188827,-0.259886,-0.961191,0.092579,0.046003,0.043283,-0.146031,-2.394939,-37.684864,24.695740,,,,,,,
1537456273.014198,-1.946290,1.287388,2.973352,0.435099,-0.228748,-0.030775,-0.260145,-0.960108,0.102549,0.015577,0.019724,-0.081553,-2.635210,-37.676010,24.923523,,,,,,,
1537456273.044065,-2.004279,1.283093,3.030190,0.575240,0.024542,0.015696,-0.257505,-0.958898,0.119184,-0.095187,-0.194895,0.133028,-2.269243,-36.949806,25.567444,,,,,,,
1537456273.073932,-2.027943,1.271744,3.060154,0.251080,0.081812,0.279379,-0.264361,-0.955616,0.130039,-0.220197,-0.262630,0.057049,-2.398218,-36.592964,25.731445,,,,,,,
1537456273.103799,-2.019117,1.264853,3.047314,-0.115638,-0.148436,0.300174,-0.271427,-0.953563,0.130553,-0.164242,-0.210759,0.002184,-2.829714,-36.894943,25.842285,,,,,,,
1537456273.133668,-1.991417,1.249282,3.019473,0.051748,0.282981,0.785424,-0.288459,-0.948758,0.129033,-0.021447,-0.025485,-0.109303,-2.904699,-36.757431,25.662048,,,,,,,
1537456273.163535,-2.005137,1.218288,3.040704,1.262968,-0.107847,0.852858,-0.313194,-0.938510,0.145286,-0.102089,-0.209012,-0.254005,-3.910351,-36.396355,25.610168,,,,,,,
1537456273.193402,-2.123454,1.175651,-3.123588,2.274652,-0.355793,0.356999,-0.327636,-0.922940,0.202075,-0.105073,0.051480,-0.088108,-4.395023,-35.540268,26.124084,,,,,,,
1537456273.223269,-2.196012,1.135972,-3.049020,0.677313,0.147379,0.899616,-0.341565,-0.906944,0.246546,0.101224,-0.118416,0.108175,-4.880711,-33.517044,27.565491,,,,,,,
1537456273.253137,-2.111400,1.113861,-3.127817,-1.094880,0.302029,1.187680,-0.378283,-0.897409,0.227064,-0.086332,0.011484,-0.013212,-6.283817,-33.379890,26.824524,,,,,,,
1537456273.283004,-2.030660,1.106448,3.059803,-1.004342,-0.314888,0.832110,-0.401315,-0.894114,0.198763,-0.194739,-0.105551,0.137267,-6.670975,-34.290268,25.796936,,,,,,,
1537456273.312871,-1.964832,1.087672,2.992981,-0.427650,0.581817,1.158716,-0.428946,-0.885548,0.178347,-0.112451,-0.242534,0.306394,-7.644279,-35.372753,24.430054,,,,,,,
1537456273.342738,-1.914671,1.046274,2.964608,0.509870,0.891547,1.619663,-0.471478,-0.865563,0.168837,-0.096622,-0.165885,0.059434,-8.798275,-35.341957,23.882935,,,,,,,
1537456273.372606,-1.905583,0.991244,2.983178,1.038147,0.797977,1.578966,-0.517242,-0.836708,0.179939,0.044250,-0.080101,-0.000664,-11.101063,-34.544857,23.837891,,,,,,,
1537456273.402472,-1.900045,0.946847,3.002660,0.544624,0.790111,0.981674,-0.552860,-0.811578,0.188904,0.230365,0.017617,-0.011429,-12.106728,-33.663910,23.906372,,,,,,,
1537456273.432340,-1.843207,0.910422,2.981217,-0.459220,1.694976,1.464857,-0.590790,-0.789763,0.165041,0.348175,0.128890,-0.067476,-14.615479,-33.426239,22.963013,,,,,,,
1537456273.462207,-1.724643,0.893835,2.879849,-3.107046,0.839596,0.749368,-0.619027,-0.779480,0.095994,0.330437,0.223709,-0.115373,-15.854160,-33.731197,21.648804,,,,,,,
1537456273.492075,-1.614479,0.862207,2.764985,-0.908327,1.147674,1.672008,-0.650141,-0.759280,0.028418,0.083857,0.136600,-0.257483,-17.497398,-35.656425,17.809082,,,,,,,
1537456273.521942,-1.602843,0.830430,2.783841,0.787841,0.607484,0.005885,-0.674210,-0.738221,0.021614,0.247437,0.120561,-0.032966,-18.838207,-35.104721,17.292664,,,,,,,
1537456273.551809,-1.598226,0.838391,2.794290,0.176986,0.393738,0.044491,-0.668406,-0.743569,0.018339,0.211756,-0.133720,0.023684,-19.246124,-34.987957,16.689392,,,,,,,
1537456273.581676,-1.603187,0.826461,2.804820,0.231563,0.115458,0.512856,-0.677125,-0.735539,0.021940,0.092607,0.299732,-0.135939,-19.467434,-34.827534,16.553589,,,,,,,
1537456273.611544,-1.599625,0.790201,2.822492,0.926166,0.967936,1.831403,-0.703408,-0.710495,0.020284,0.458321,-0.127426,-0.156102,-20.618145,-33.891434,15.931458,,,,,,,
1537456273.641411,-1.624328,0.718266,2.883990,1.747333,0.640414,2.568913,-0.751867,-0.658080,0.040288,0.108587,0.075622,0.122569,-22.060051,-32.356350,15.923828,,,,,,,
1537456273.671278,-1.648317,0.632746,2.937431,1.511947,0.145258,2.688498,-0.803983,-0.591362,0.062451,0.023312,0.158989,0.142124,-24.564175,-28.023876,16.494141,,,,,,,
1537456273.701145,-1.669982,0.547380,2.964940,0.614632,-0.464640,2.793335,-0.849693,-0.520452,0.084555,0.173667,-0.012691,0.280603,-25.506260,-26.073317,16.909851,,,,,,,
1537456273.731013,-1.671254,0.453691,2.951188,-0.619491,0.320864,3.615107,-0.894302,-0.438286,0.090143,0.294327,-0.264686,0.414022,-27.129208,-22.465302,17.482727,,,,,,,
1537456273.760880,-1.616360,0.339525,2.897851,-1.746925,1.424447,3.881514,-0.941933,-0.333040,0.042948,0.003334,-0.235930,0.200567,-28.472023,-20.368095,16.864929,,,,,,,
1537456273.790747,-1.561528,0.246252,2.832652,-2.084476,0.742767,2.448083,-0.969790,-0.243771,-0.008988,-0.101789,-0.082417,-0.020080,-30.823410,-17.408218,14.697021,,,,,,,
1537456273.820615,-1.535569,0.191000,2.770174,-1.988467,0.386214,1.599054,-0.981204,-0.189841,-0.034580,0.010898,-0.231577,-0.090085,-31.779156,-15.979549,13.758057,,,,,,,
1537456273.850482,-1.505376,0.137402,2.719009,-1.572555,1.109629,1.739884,-0.988455,-0.136971,-0.064757,0.049490,-0.241386,-0.104188,-32.411579,-15.419750,13.203125,,,,,,,
1537456273.880349,-1.476380,0.098414,2.684915,-0.993927,0.270366,0.672902,-0.990728,-0.098256,-0.093820,-0.062022,-0.048778,-0.216116,-33.228481,-13.696880,11.886047,,,,,,,
1537456273.910216,-1.490065,0.089911,2.663388,-0.569739,-0.929499,0.148048,-0.992716,-0.089790,-0.080318,0.220652,0.019248,-0.084493,-33.089222,-13.223457,12.283264,,,,,,,
1537456273.940084,-1.530926,0.069767,2.643845,-1.769983,-3.120603,0.536380,-0.996774,-0.069711,-0.039763,-0.108557,0.198129,0.338378,-32.282269,-12.381721,14.485779,,,,,,,
1537456273.969951,-1.526033,0.077160,2.546252,-2.929763,0.993546,-0.049789,-0.996025,-0.077084,-0.044616,0.132866,-0.066578,-0.212419,-31.777500,-14.002506,14.783875,,,,,,,
1537456273.999818,-1.514909,0.056275,2.515809,-0.031972,-0.227977,1.048547,-0.996858,-0.056245,-0.055769,0.483903,0.216844,-0.384752,-32.269165,-15.241207,14.057617,,,,,,,
1537456274.029685,-1.521168,0.021792,2.523972,0.152493,-0.217668,1.317608,-0.998531,-0.021791,-0.049596,-0.135380,-0.064208,0.209112,-32.120968,-14.611969,14.308655,,,,,,,
1537456274.059553,-1.569183,-0.027391,2.513500,-0.151046,-2.095898,1.872182,-0.999623,0.027388,-0.001613,0.274159,-0.351988,-0.230687,-31.823551,-12.879124,15.925781,,,,,,,
1537456274.089420,-1.617648,-0.060634,2.539019,0.908244,-2.049723,0.242782,-0.997066,0.060597,0.046748,-0.724461,0.156414,-0.468074,-31.219631,-12.001293,17.313171,,,,,,,
1537456274.119286,-1.638656,-0.070031,2.532412,-0.458284,0.152850,0.383068,-0.995252,0.069973,0.067642,-0.041171,-0.079937,0.400529,-30.109303,-11.420540,18.994263,,,,,,,
1537456274.149153,-1.647570,-0.072879,2.521822,-0.160960,-0.277670,0.139446,-0.994407,0.072814,0.076495,0.040442,-0.285384,-0.000460,-30.175648,-11.649605,19.595642,,,,,,,
1537456274.179021,-1.652835,-0.081077,2.510786,-0.508130,-0.300748,0.189287,-0.993362,0.080989,0.081677,-0.237260,-0.132838,-0.082058,-29.817497,-11.517628,20.307861,,,,,,,
1537456274.208888,-1.675626,-0.077115,2.503117,0.149651,-0.320925,0.063413,-0.991554,0.077039,0.104326,0.292884,-0.289960,0.145292,-29.379055,-11.937550,21.150574,,,,,,,
1537456274.238755,-1.677665,-0.059727,2.535876,1.665297,-0.427762,-1.817065,-0.992521,0.059691,0.106475,0.352796,-0.131026,0.020508,-28.776089,-11.642094,22.287842,,,,,,,
1537456274.268622,-1.701371,0.003247,2.601033,1.656895,-1.343572,-2.439319,-0.991481,-0.003247,0.130203,0.103801,-0.203754,0.082413,-27.841427,-11.493721,23.595032,,,,,,,
1537456274.298490,-1.751262,0.059464,2.656084,1.739932,-0.888010,-1.813339,-0.982021,-0.059429,0.179170,-0.058369,-0.115970,-0.033876,-25.236279,-11.859459,26.668884,,,,,,,
1537456274.328357,-1.744739,0.096292,2.735052,2.762093,0.736968,-1.790655,-0.980347,-0.096143,0.172265,-0.120575,0.129529,-0.021692,-24.344696,-11.104858,27.654724,,,,,,,
1537456274.358224,-1.707461,0.130480,2.801037,0.419122,1.663130,-0.441823,-0.982254,-0.130110,0.135081,-0.391693,0.482039,-0.834727,-24.897289,-8.793671,27.947632,,,,,,,
1537456274.388092,-1.687339,0.157704,2.826603,0.631612,0.636882,-0.617626,-0.980891,-0.157051,0.114836,-0.030203,0.093971,-0.229200,-25.414211,-8.755478,27.357239,,,,,,,
1537456274.417959,-1.705482,0.151703,2.822491,-0.756548,-0.936395,0.517662,-0.979562,-0.151122,0.132737,-0.098868,0.195403,0.238678,-25.564350,-8.423920,26.878967,,,,,,,
1537456274.447826,-1.715481,0.145304,2.824330,0.920565,0.252168,0.066865,-0.979123,-0.144793,0.142661,-0.083499,0.027636,0.237191,-24.761944,-8.188183,27.288086,,,,,,,
1537456274.477693,-1.714166,0.133650,2.833892,0.083594,-0.917235,0.259467,-0.980913,-0.133253,0.141604,-0.251341,0.012571,-0.279101,-25.022423,-7.794823,27.203247,,,,,,,
1537456274.507561,-1.740853,0.123919,2.832468,0.189022,-0.223715,0.247926,-0.978017,-0.123602,0.167941,0.061117,-0.102610,0.149427,-24.345928,-7.476646,27.945190,,,,,,,
1537456274.537428,-1.712962,0.118289,2.854394,0.982110,1.624118,-0.048545,-0.982994,-0.118013,0.140697,0.067543,-0.016463,0.130238,-24.614044,-7.137081,27.489990,,,,,,,
1537456274.567295,-1.684827,0.117984,2.869638,0.014308,0.090771,-0.100002,-0.986598,-0.117710,0.112993,0.051616,-0.049526,-0.151704,-25.810917,-5.872223,26.476685,,,,,,,
1537456274.597162,-1.692126,0.127126,2.864411,-0.189648,-0.180687,-0.454200,-0.984638,-0.126784,0.120056,0.186008,-0.096833,-0.090759,-25.826309,-6.258472,26.619629,,,,,,,
1537456274.627030,-1.682240,0.136617,2.870020,0.410616,0.889869,-0.098471,-0.984537,-0.136192,0.110177,-0.126059,-0.038857,0.145454,-25.881836,-6.478714,26.296082,,,,,,,
1537456274.656897,-1.654993,0.134445,2.877294,-0.049254,0.574827,0.154441,-0.987465,-0.134040,0.083338,-0.075264,0.097022,0.020711,-26.345188,-6.239235,25.761169,,,,,,,
1537456274.686764,-1.657827,0.134684,2.862720,-0.706870,-0.429304,-0.133987,-0.987193,-0.134277,0.086133,0.132640,-0.019105,0.043673,-26.468002,-6.538528,25.757080,,,,,,,
1537456274.716632,-1.657287,0.140693,2.847113,-0.341487,0.232379,0.012975,-0.986417,-0.140229,0.085529,-0.100619,0.019716,-0.001972,-26.362965,-7.180050,25.920044,,,,,,,
1537456274.746499,-1.650880,0.136204,2.841744,-0.134702,-0.002278,0.089123,-0.987563,-0.135783,0.079257,0.048079,0.004191,-0.125598,-26.637859,-7.502911,25.714172,,,,,,,
1537456274.776366,-1.647675,0.135411,2.839469,0.006369,0.449330,0.080096,-0.987919,-0.134997,0.076099,0.092060,-0.051892,0.021572,-26.705135,-7.496346,25.843750,,,,,,,
1537456274.806233,-1.630534,0.134809,2.841823,-0.018814,0.150459,-0.042964,-0.989159,-0.134401,0.059161,-0.078407,-0.040739,-0.041125,-27.164532,-7.509060,25.244202,,,,,,,
1537456274.836101,-1.636293,0.131491,2.842279,0.076896,-0.325876,0.206102,-0.989241,-0.131113,0.064885,-0.001954,-0.060843,-0.022725,-27.321293,-7.529720,25.167542,,,,,,,
1537456274.865968,-1.643164,0.125498,2.849119,0.405149,0.309165,0.118037,-0.989538,-0.125169,0.071736,-0.002375,0.022050,0.080577,-26.880276,-7.036907,25.534790,,,,,,,
1537456274.895835,-1.626958,0.123638,2.863586,0.319133,0.368148,-0.057507,-0.990801,-0.123323,0.055704,0.004855,0.035829,-0.050653,-27.199982,-6.693104,25.165588,,,,,,,
1537456274.925702,-1.633822,0.128604,2.863621,-0.160612,-0.520945,-0.181615,-0.989773,-0.128250,0.062464,-0.008106,-0.080277,-0.005564,-27.477161,-6.600372,24.890381,,,,,,,
1537456274.955570,-1.637135,0.132018,2.870689,0.562572,0.271992,-0.114199,-0.989118,-0.131635,0.065714,0.018140,0.029340,-0.095636,-27.037689,-6.594276,25.021729,,,,,,,
1537456274.985437,-1.638395,0.132710,2.888273,0.425866,-0.267182,-0.007920,-0.988943,-0.132320,0.066954,-0.132380,0.169949,0.004519,-27.135067,-6.118534,24.915466,,,,,,,
1537456275.015304,-1.654289,0.112232,2.895872,0.537588,0.073930,1.359759,-0.990247,-0.111997,0.082871,-0.287433,0.240232,0.212280,-26.911636,-5.266102,24.983276,,,,,,,
1537456275.045172,-1.656806,0.101420,2.901242,-0.446142,-0.752162,-0.593234,-0.991183,-0.101246,0.085462,1.323688,-1.099651,-0.277891,-27.214485,-5.126961,24.566284,,,,,,,
1537456275.075039,-1.661583,0.104900,2.903279,0.156697,-0.057388,-0.234269,-0.990407,-0.104708,0.090164,0.292638,-0.148817,0.156724,-26.997120,-5.392693,25.082153,,,,,,,
1537456275.104906,-1.677791,0.130017,2.896545,-0.616426,-0.871304,-1.112193,-0.985890,-0.129651,0.105889,-0.047420,0.220167,-0.037606,-26.871052,-6.052597,25.481873,,,,,,,
1537456275.134774,-1.694063,0.161603,2.885305,-0.363739,-0.453213,-0.954039,-0.979481,-0.160901,0.121353,-0.088741,0.006436,-0.015548,-26.049305,-8.060444,26.342285,,,,,,,
1537456275.164642,-1.698343,0.186081,2.888438,0.263544,0.277860,-0.788667,-0.974753,-0.185009,0.125006,0.071708,-0.054508,-0.042395,-25.993637,-8.564785,26.494019,,,,,,,
1537456275.194509,-1.690432,0.212424,2.901113,0.228620,0.457191,-1.253837,-0.970535,-0.210830,0.116668,0.123565,0.030684,-0.083297,-26.212784,-9.261505,26.019165,,,,,,,
1537456275.224376,-1.662157,0.243706,2.922434,0.581298,1.362592,-1.129236,-0.966403,-0.241301,0.088537,-0.344678,0.034911,0.172052,-26.585560,-9.361412,25.429077,,,,,,,
1537456275.254244,-1.628156,0.286868,2.930916,-0.060164,1.085452,-1.564058,-0.957558,-0.282949,0.054986,-0.057716,-0.191691,0.239677,-27.856331,-10.306324,24.069580,,,,,,,
1537456275.284111,-1.598650,0.341755,2.931818,0.080872,1.124746,-2.186891,-0.941802,-0.335141,0.026239,-0.055817,0.041562,0.003210,-28.269096,-11.128922,23.703613,,,,,,,
1537456275.313978,-1.572243,0.411930,2.936563,-0.328483,-0.104965,-2.229097,-0.916349,-0.400378,0.001326,-0.191821,0.149768,-0.013457,-29.055866,-13.719166,22.439636,,,,,,,
1537456275.343846,-1.598012,0.479920,2.905612,-0.985978,-1.482123,-2.202371,-0.886703,-0.461708,0.024138,0.198211,0.006371,-0.149550,-28.301224,-15.183697,22.876831,,,,,,,
1537456275.373713,-1.612341,0.532296,2.893058,-0.246097,-0.302470,-1.457628,-0.860900,-0.507513,0.035787,0.048446,0.165197,0.040050,-26.641151,-18.439323,24.112122,,,,,,,
1537456275.403580,-1.617991,0.571988,2.880052,-0.573949,-0.622153,-1.221385,-0.839890,-0.541305,0.039668,-0.029236,0.060744,-0.077265,-26.098816,-19.463108,24.184326,,,,,,,
1537456275.433447,-1.620822,0.605152,2.876021,0.226289,0.430823,-0.966225,-0.821387,-0.568887,0.041124,0.093680,-0.116629,-0.063066,-25.131115,-21.603182,24.406189,,,,,,,
1537456275.463315,-1.612862,0.633600,2.885054,0.147817,0.407255,-0.903081,-0.805189,-0.592050,0.033891,0.014524,0.004586,0.051253,-25.076630,-22.031652,24.183105,,,,,,,
1537456275.493182,-1.610999,0.667431,2.876605,-0.720389,-0.785416,-1.107485,-0.784779,-0.618970,0.031567,-0.214076,0.151670,0.046604,-24.426304,-23.322952,24.104553,,,,,,,
1537456275.523049,-1.611684,0.698214,2.851983,-0.459633,-0.232521,-0.820522,-0.765351,-0.642851,0.031311,0.240677,-0.154284,-0.047851,-23.691395,-24.469467,24.203979,,,,,,,
1537456275.552917,-1.614389,0.721123,2.843477,-0.210584,-0.407267,-0.704480,-0.750351,-0.660229,0.032731,0.001587,-0.024708,-0.106080,-22.846054,-25.965757,24.441467,,,,,,,
1537456275.582784,-1.632735,0.750457,2.831974,-0.166333,-0.608586,-0.925981,-0.729974,-0.681973,0.045272,-0.088126,-0.092487,0.078614,-22.213085,-26.872072,24.519287,,,,,,,
1537456275.612651,-1.633001,0.759974,2.849625,0.639616,0.801073,-0.211186,-0.723452,-0.688902,0.045060,0.029589,-0.126619,-0.021851,-21.303947,-27.447350,24.939453,,,,,,,
1537456275.642518,-1.626608,0.766625,2.879572,0.545047,0.582143,-0.171945,-0.719134,-0.693708,0.040178,-0.097318,0.109312,-0.035066,-21.893711,-26.811024,24.437683,,,,,,,
1537456275.672386,-1.623028,0.776239,2.894544,0.220634,0.334851,-0.449262,-0.712581,-0.700600,0.037253,-0.078573,0.119698,-0.043082,-21.934532,-26.665333,24.242737,,,,,,,
1537456275.702253,-1.617392,0.787009,2.908085,0.304307,0.541443,-0.204986,-0.705201,-0.708245,0.032883,0.111680,-0.148933,0.079559,-22.383770,-26.785618,23.698059,,,,,,,
1537456275.732120,-1.602277,0.789164,2.929323,0.569141,1.227901,-0.030700,-0.704090,-0.709764,0.022173,0.033344,-0.099501,0.044020,-22.517139,-26.466373,23.352844,,,,,,,
1537456275.761986,-1.594155,0.790430,2.948687,0.525507,0.582282,-0.182004,-0.703348,-0.710656,0.016433,-0.061728,0.031060,-0.104140,-23.344151,-25.932333,22.697998,,,,,,,
1537456275.791855,-1.602498,0.795830,2.988501,1.376516,1.017512,-0.109864,-0.699340,-0.714445,0.022178,0.210998,-0.129061,-0.219047,-23.622955,-25.804136,22.696228,,,,,,,
1537456275.821722,-1.621549,0.795378,3.059441,1.635726,0.737993,-0.092482,-0.699113,-0.714128,0.035513,-0.172683,-0.047255,-0.000158,-24.469692,-23.872374,22.361511,,,,,,,
1537456275.851589,-1.669505,0.810717,3.116678,0.893301,-0.859041,-0.995376,-0.685625,-0.724781,0.067898,-0.037870,-0.089580,0.338078,-24.696465,-23.194216,22.250183,,,,,,,
1537456275.881456,-1.715027,0.848224,3.134296,0.032315,-0.504229,-1.317815,-0.654450,-0.750107,0.095052,-0.111709,0.256195,0.126277,-23.214664,-23.786171,23.665405,,,,,,,
1537456275.911324,-1.707398,0.890239,3.127209,-0.816449,0.021282,-1.417058,-0.623365,-0.777222,0.085686,-0.189776,0.228547,0.270805,-22.698643,-24.479382,23.828247,,,,,,,
1537456275.941191,-1.680032,0.929798,3.083305,-1.147097,-0.451051,-1.020161,-0.594431,-0.801499,0.065193,0.105753,0.042222,-0.005607,-21.619534,-26.854839,23.888428,,,,,,,
1537456275.971058,-1.659365,0.962016,3.044112,-0.560937,-0.306008,-0.901158,-0.569625,-0.820346,0.050583,0.053268,-0.004361,-0.301880,-21.155422,-28.503448,23.669006,,,,,,,
1537456276.000925,-1.655844,0.984444,3.028528,-0.250158,-0.320530,-0.619735,-0.551327,-0.832965,0.047002,0.031170,-0.124997,-0.110128,-19.927200,-30.036070,23.799500,,,,,,,
1537456276.030793,-1.662125,1.002352,3.023931,-0.239704,-0.547476,-0.677230,-0.536078,-0.842739,0.049096,-0.068109,-0.015003,0.066200,-19.414524,-30.227039,23.975342,,,,,,,
1537456276.060660,-1.668433,1.031476,3.015797,-0.161982,-0.394750,-1.085982,-0.511107,-0.858058,0.050062,0.030013,0.051036,-0.088453,-18.132149,-31.367832,24.109375,,,,,,,
1537456276.090527,-1.672680,1.057897,3.015030,-0.107060,0.044192,-0.610208,-0.488161,-0.871326,0.049909,0.196581,-0.077283,0.082919,-17.391880,-31.941582,24.076416,,,,,,,
1537456276.120395,-1.660304,1.067061,3.003778,-0.232318,0.255201,-0.131967,-0.480768,-0.875786,0.043148,-0.008704,0.008354,0.027821,-16.869427,-32.700905,23.930298,,,,,,,
1537456276.150262,-1.642905,1.073349,2.994413,-0.193206,0.258328,-0.075673,-0.475944,-0.878803,0.034379,0.187644,-0.078823,-0.010866,-16.878460,-32.869629,23.827820,,,,,,,
1537456276.180129,-1.629851,1.070519,2.979692,-0.218572,-0.260104,0.102734,-0.478833,-0.877449,0.028310,0.001294,-0.015327,-0.108282,-16.933056,-33.098183,23.539917,,,,,,,
1537456276.209997,-1.628325,1.074819,2.977459,0.022028,0.200098,-0.120044,-0.475104,-0.879504,0.027362,-0.049798,0.023852,0.053754,-16.829170,-33.403122,23.464539,,,,,,,
1537456276.239864,-1.631690,1.088043,2.981302,0.009616,-0.268078,-0.560716,-0.463359,-0.885720,0.028251,-0.040685,0.017541,-0.136802,-16.547363,-33.514740,23.488770,,,,,,,
1537456276.269731,-1.652324,1.107290,2.988809,0.147672,-0.548962,-0.627007,-0.445602,-0.894490,0.036410,-0.053849,-0.085414,-0.002474,-15.364483,-33.842773,23.940125,,,,,,,
1537456276.299599,-1.678733,1.127628,3.005746,0.094875,-0.336025,-0.659705,-0.426308,-0.903398,0.046194,0.042427,0.025743,0.048472,-14.703388,-33.979042,24.080383,,,,,,,
1537456276.329466,-1.689652,1.145067,3.011260,-0.010343,-0.137195,-0.618385,-0.410071,-0.910738,0.048970,0.103888,0.054796,0.011180,-13.731113,-34.277931,24.246826,,,,,,,
1537456276.359333,-1.696721,1.162320,3.011325,-0.160239,-0.397152,-0.524030,-0.394066,-0.917727,0.049887,-0.103142,-0.024747,0.094522,-13.225941,-34.662941,24.237976,,,,,,,
1537456276.389200,-1.704123,1.178601,3.008349,-0.132449,-0.346162,-0.573055,-0.378825,-0.924072,0.050809,0.077723,-0.030685,-0.028928,-12.255032,-35.060646,24.339355,,,,,,,
1537456276.419068,-1.708804,1.198440,3.001388,-0.186449,-0.448906,-0.816706,-0.360352,-0.931473,0.050049,0.002640,0.047607,0.057250,-12.018501,-35.570183,24.557861,,,,,,,
1537456276.448935,-1.738072,1.225189,3.010712,0.162447,-0.724551,-0.911648,-0.334039,-0.940870,0.056404,-0.210425,-0.028857,-0.130577,-10.188194,-36.108650,24.791992,,,,,,,
1537456276.478802,-1.800428,1.248751,3.059417,0.450859,-0.353416,-0.834103,-0.308198,-0.948590,0.072043,0.081621,-0.065997,-0.098380,-9.019348,-36.310432,25.113403,,,,,,,
1537456276.508670,-1.833963,1.265348,3.085592,-0.133273,-0.285994,-0.364776,-0.290368,-0.953712,0.078229,0.218377,0.031227,0.170764,-7.905781,-36.305054,25.225281,,,,,,,
1537456276.538537,-1.818211,1.272234,3.058755,-0.437228,-0.390345,-0.170975,-0.285189,-0.955760,0.072036,-0.056852,-0.008961,0.059709,-7.274391,-36.492393,25.112549,,,,,,,
1537456276.568404,-1.777789,1.282499,3.011890,-0.573110,-0.141515,-0.274863,-0.278251,-0.958729,0.058433,-0.122475,-0.017757,0.067742,-6.512798,-36.920021,24.715942,,,,,,,
1537456276.598271,-1.716568,1.293945,2.947252,-0.753301,0.135234,-0.258384,-0.270429,-0.961921,0.039703,0.026029,-0.007989,-0.037399,-6.145977,-37.350517,24.295898,,,,,,,
1537456276.628139,-1.639814,1.304839,2.882391,-0.462547,0.514005,-0.355509,-0.262207,-0.964841,0.018126,-0.015869,-0.021471,-0.051024,-5.725445,-38.335915,23.505493,,,,,,,
1537456276.658006,-1.619804,1.314496,2.864417,0.166549,-0.192039,-0.299749,-0.253199,-0.967335,0.012419,-0.048269,-0.051052,-0.302900,-5.486465,-38.736721,23.477600,,,,,,,
1537456276.687873,-1.682870,1.325775,2.921991,0.437555,-0.209749,-0.491833,-0.241055,-0.970132,0.027130,-0.046100,-0.025626,0.053116,-5.006310,-38.669640,23.894104,,,,,,,
1537456276.717740,-1.738449,1.344539,2.971171,0.239895,-0.299832,-0.645073,-0.221187,-0.974513,0.037434,0.079707,0.099009,0.010494,-4.460350,-38.535744,24.103699,,,,,,,
1537456276.747608,-1.782717,1.357769,3.014854,0.304256,0.120307,-0.457914,-0.206690,-0.977395,0.044470,0.038065,-0.037070,-0.082220,-3.296656,-38.620869,24.260803,,,,,,,
1537456276.777475,-1.825939,1.365271,3.068971,0.172441,0.303033,-0.264566,-0.197474,-0.978954,0.051507,0.221782,0.051509,0.067405,-3.271502,-38.676941,24.238831,,,,,,,
1537456276.807342,-1.806165,1.372040,3.054756,-0.553036,0.253128,0.083008,-0.192006,-0.980313,0.046046,0.365361,-0.057437,0.301458,-3.036911,-38.326111,23.979309,,,,,,,
1537456276.837209,-1.648770,1.373488,2.901273,-1.031300,0.302891,0.055420,-0.195434,-0.980598,0.015270,-0.072571,-0.027978,0.084172,-3.237093,-39.085297,23.224365,,,,,,,
1537456276.867076,-1.546577,1.374451,2.813701,-0.360237,0.653570,-0.365775,-0.195028,-0.980786,-0.004724,0.012091,0.042096,0.089456,-3.422796,-39.485592,22.919373,,,,,,,
1537456276.896944,-1.400238,1.386447,2.729476,-0.277964,3.223375,0.913884,-0.180647,-0.983056,-0.031113,0.675581,-0.003394,-0.507385,-5.155548,-39.820244,22.363159,,,,,,,
1537456276.926811,-1.272607,1.354498,2.635022,-1.263018,-0.159922,0.613233,-0.205144,-0.976699,-0.063052,-0.374446,-0.133882,0.400546,-6.865208,-39.566418,21.427673,,,,,,,
1537456276.956678,-1.162974,1.321969,2.521296,-0.747742,-0.101836,0.599691,-0.226070,-0.969202,-0.097672,-0.244984,-0.072150,-0.267059,-7.663113,-40.794277,20.363464,,,,,,,
1537456276.986545,-1.162056,1.314522,2.516215,0.045005,0.233270,0.104721,-0.232595,-0.967341,-0.100745,0.047064,-0.016073,-0.139032,-7.625351,-40.947556,20.102417,,,,,,,
1537456277.016413,-1.167575,1.320907,2.528103,0.237107,-0.083888,-0.219471,-0.227461,-0.968940,-0.097034,0.000334,-0.011514,-0.097577,-7.567699,-41.165871,20.051270,,,,,,,
1537456277.046280,-1.206472,1.332828,2.561970,0.571187,-0.271058,-0.260218,-0.220254,-0.971819,-0.083994,0.078668,-0.031538,-0.164084,-7.294453,-40.938148,20.113220,,,,,,,
1537456277.076147,-1.290601,1.344951,2.643088,0.767228,-0.040224,-0.089674,-0.215195,-0.974605,-0.061926,0.115891,-0.123051,-0.030176,-7.090023,-40.353477,20.883179,,,,,,,
1537456277.106014,-1.399304,1.347396,2.752050,0.919974,-0.118524,0.213854,-0.218295,-0.975150,-0.037807,0.050281,-0.176629,-0.018803,-7.026554,-40.029770,21.290222,,,,,,,
1537456277.135881,-1.568490,1.347256,2.916203,1.458742,-0.409587,0.001599,-0.221681,-0.975119,-0.000511,-0.086730,-0.117960,-0.193886,-7.265057,-38.981304,22.559631,,,,,,,
1537456277.165749,-1.798818,1.342291,-3.134872,1.789091,0.193452,-0.043764,-0.220657,-0.974006,0.051205,0.049744,0.092933,-0.056225,-7.438690,-38.161880,23.630615,,,,,,,
1537456277.195616,-1.931283,1.331554,-2.992672,0.559247,-0.148292,-0.010468,-0.221735,-0.971518,0.083585,-0.024404,0.209982,0.350146,-8.113110,-36.503334,24.552856,,,,,,,
1537456277.225483,-1.895379,1.339509,-3.043141,-1.262299,-0.198679,-0.214641,-0.217261,-0.973372,0.073104,0.041205,0.098159,0.526245,-8.025436,-36.547081,24.787292,,,,,,,
1537456277.255351,-1.645322,1.366172,2.986549,-2.408666,0.104066,-0.774154,-0.202635,-0.979137,0.015130,-0.197557,0.045742,0.306404,-7.084671,-38.341156,23.368713,,,,,,,
1537456277.285218,-1.152590,1.379212,2.486432,-3.400088,0.635404,-0.855353,-0.174004,-0.981704,-0.077331,0.272439,0.182342,0.145599,-6.122074,-39.918751,21.883850,,,,,,,
1537456277.315085,-1.030591,1.371988,2.361207,0.430456,0.046233,0.389211,-0.169377,-0.980303,-0.101577,0.480290,-0.093916,-0.439973,-4.874062,-42.618328,19.622314,,,,,,,
1537456277.344952,-1.064695,1.357666,2.397914,-0.097656,-0.092259,0.602653,-0.185003,-0.977374,-0.102538,0.052953,-0.054746,0.093856,-5.295979,-42.395241,19.747498,,,,,,,
1537456277.374820,-1.102698,1.339458,2.435457,-0.059058,-0.006467,0.656335,-0.204616,-0.973360,-0.103449,0.021113,0.033205,0.027017,-6.365696,-42.147484,19.778015,,,,,,,
1537456277.404687,-1.116455,1.328057,2.456980,0.019416,0.259150,0.279885,-0.215977,-0.970683,-0.105487,-0.096966,-0.015782,-0.056347,-6.809780,-42.084450,19.655579,,,,,,,
1537456277.434554,-1.124504,1.326300,2.467822,0.015993,-0.117518,-0.097743,-0.218356,-0.970259,-0.104481,-0.161542,-0.027543,0.016621,-7.404755,-41.926537,19.717407,,,,,,,
1537456277.464421,-1.122108,1.330742,2.463212,0.111876,0.042857,-0.041947,-0.214220,-0.971325,-0.103133,0.164247,-0.021320,-0.077500,-7.123562,-41.983826,19.731201,,,,,,,
1537456277.494289,-1.146788,1.325949,2.496563,0.056757,0.522773,0.461340,-0.220941,-0.970174,-0.099730,0.174722,0.033437,0.134108,-7.257084,-41.791397,19.885620,,,,,,,
1537456277.524156,-1.155989,1.308460,2.522452,-0.012061,0.516155,0.700775,-0.237344,-0.965787,-0.104517,0.059411,-0.018542,-0.047644,-8.774059,-41.317703,19.472107,,,,,,,
1537456277.554023,-1.155048,1.292263,2.539640,-0.130422,0.536433,0.454047,-0.251524,-0.961460,-0.111044,-0.049379,-0.008206,0.019949,-9.594223,-41.271481,19.381836,,,,,,,
1537456277.583890,-1.143584,1.275114,2.541030,-0.286604,0.224784,0.709623,-0.265203,-0.956604,-0.120734,0.207967,-0.147889,0.064414,-10.738472,-41.157253,18.887390,,,,,,,
1537456277.613758,-1.153455,1.256938,2.548940,-0.141568,-0.052355,0.553697,-0.282231,-0.951150,-0.125138,0.025044,-0.149482,-0.008117,-11.203594,-40.936916,18.968689,,,,,,,
1537456277.643625,-1.176080,1.235868,2.584424,0.120162,0.963838,1.149720,-0.303426,-0.944434,-0.126401,0.450155,-0.725412,-0.167041,-12.766003,-40.540657,18.895569,,,,,,,
1537456277.673492,-1.175621,1.179664,2.633138,-0.489077,1.872548,2.499256,-0.351853,-0.924478,-0.146764,0.170091,-0.049567,-0.055186,-14.724907,-39.631546,18.551697,,,,,,,
1537456277.703359,-1.093613,1.105690,2.621003,-1.816361,2.641630,1.667725,-0.398415,-0.893774,-0.205995,0.062340,0.288046,-0.031493,-20.641197,-38.113106,15.604370,,,,,,,
1537456277.733226,-0.911274,1.037757,2.518562,-3.013726,3.355706,0.833726,-0.401586,-0.861266,-0.311366,0.019307,-0.016785,0.009455,-22.883820,-37.817982,12.884338,,,,,,,
1537456277.763094,-0.744779,0.941102,2.428105,-3.860362,2.882444,1.492908,-0.399160,-0.808208,-0.432979,-0.123011,0.140544,-0.050419,-26.616497,-37.487656,5.335876,,,,,,,
1537456277.792961,-0.578720,0.786619,2.352050,-6.163035,4.456168,2.341736,-0.386281,-0.707969,-0.591241,0.303213,0.465232,0.100595,-28.403580,-36.864017,0.665283,,,,,,,
1537456277.822828,-0.417429,0.550574,2.316615,-8.163076,4.041225,2.698525,-0.345501,-0.523177,-0.779047,-0.411808,0.115569,-0.492437,-30.957905,-32.090080,-12.994751,,,,,,,
1537456277.852695,-0.321094,0.327646,2.253238,-6.639670,1.198344,-0.662333,-0.298815,-0.321815,-0.898412,-0.239378,0.165581,0.092336,-30.733124,-28.509329,-19.375793,,,,,,,
1537456277.882563,-0.300201,0.230931,2.157679,-2.501429,-1.018664,-2.310150,-0.287862,-0.228884,-0.929918,-0.107463,-0.057432,-0.092818,-29.180916,-25.913008,-24.884644,,,,,,,
1537456277.912430,-0.319818,0.176817,2.084867,-2.488301,-0.839647,-1.124835,-0.309492,-0.175897,-0.934492,0.134565,-0.369788,0.300199,-28.551208,-26.231411,-25.468079,,,,,,,
1537456277.942297,-0.327906,0.131621,2.052362,-1.211249,-0.471955,-0.225166,-0.319276,-0.131241,-0.938530,-0.140868,-0.225754,0.173592,-28.116512,-25.449009,-26.269226,,,,,,,
1537456277.972164,-0.344930,0.101246,2.043289,-1.093826,-0.493962,0.098232,-0.336400,-0.101073,-0.936280,-0.142009,-0.131028,0.062394,-27.973949,-24.893164,-26.542480,,,,,,,
1537456278.002032,-0.361180,0.082661,2.032061,-0.221285,-0.702820,-0.377762,-0.352172,-0.082567,-0.932286,-0.128007,-0.140029,-0.018245,-28.248745,-24.091009,-26.705261,,,,,,,
1537456278.031899,-0.389102,0.109274,2.013345,0.935841,-1.082664,-1.376346,-0.377095,-0.109057,-0.919731,0.040257,0.169146,-0.074455,-28.230774,-25.824070,-25.367004,,,,,,,
1537456278.061766,-0.405124,0.142850,1.977069,-0.062529,-0.617446,-1.386695,-0.390118,-0.142365,-0.909692,0.057354,0.128190,0.042505,-28.016609,-27.134583,-24.660706,,,,,,,
1537456278.091633,-0.424891,0.137365,1.934636,-0.714319,-0.990082,-1.425756,-0.408338,-0.136934,-0.902502,-0.008684,-0.016722,0.074224,-27.179169,-28.719635,-24.246765,,,,,,,
1537456278.121500,-0.452314,0.169210,1.887583,0.866202,-1.322941,-2.074263,-0.430807,-0.168403,-0.886592,0.017095,0.076072,0.032924,-26.676159,-29.948830,-23.806030,,,,,,,
1537456278.151367,-0.489131,0.222199,1.845668,0.947889,-1.591348,-1.918621,-0.458307,-0.220375,-0.861040,-0.062841,-0.030937,-0.018858,-25.258621,-33.013016,-21.797058,,,,,,,
1537456278.181234,-0.526434,0.264159,1.810187,0.355997,-1.395116,-1.671225,-0.485025,-0.261098,-0.834613,0.012109,0.037404,-0.089047,-24.611229,-34.133652,-20.627808,,,,,,,
1537456278.211102,-0.548688,0.292265,1.752238,-0.279180,-1.427192,-2.245007,-0.499450,-0.288122,-0.817028,-0.219376,0.022482,-0.193455,-22.648533,-36.857422,-19.519897,,,,,,,
1537456278.240969,-0.575699,0.319428,1.699192,-0.081614,-1.344687,-1.697894,-0.516882,-0.314024,-0.796381,-0.046686,-0.036501,-0.128226,-21.433384,-37.907021,-19.538086,,,,,,,
1537456278.270836,-0.593825,0.328381,1.661422,-0.825807,-0.996195,-0.967913,-0.529637,-0.322511,-0.784520,-0.039150,0.064821,-0.024501,-19.736977,-39.342594,-19.691589,,,,,,,
1537456278.300704,-0.606650,0.314161,1.595072,-2.133927,-1.071764,-1.908852,-0.542215,-0.309019,-0.781352,-0.004340,0.043241,-0.035863,-18.985771,-39.399208,-20.514099,,,,,,,
1537456278.330570,-0.615414,0.286287,1.487637,-3.047510,-1.359338,-2.397249,-0.553800,-0.282392,-0.783301,0.115797,0.013883,0.085043,-16.075645,-39.630257,-23.496094,,,,,,,
1537456278.360438,-0.629771,0.260717,1.380945,-2.136654,-1.342170,-2.290329,-0.569056,-0.257773,-0.780851,0.138118,-0.043710,0.057401,-14.792511,-39.293789,-25.444336,,,,,,,
1537456278.390306,-0.648432,0.283603,1.312129,0.411371,-1.129568,-2.105534,-0.579812,-0.279817,-0.765193,0.208016,0.010209,0.025615,-12.273380,-39.199860,-27.697815,,,,,,,
1537456278.420172,-0.673269,0.361258,1.304022,2.784964,-0.889441,-1.718808,-0.583297,-0.353451,-0.731325,0.166183,0.056362,-0.061521,-11.348434,-40.175411,-26.641663,,,,,,,
1537456278.450039,-0.716494,0.465844,1.346171,3.843441,-0.789260,-0.659899,-0.586764,-0.449177,-0.673757,0.369219,0.191731,-0.058360,-9.756393,-42.908352,-22.036011,,,,,,,
1537456278.479908,-0.772747,0.544203,1.427411,3.154485,-0.398121,0.119278,-0.597257,-0.517736,-0.612563,0.132077,0.168707,-0.093995,-9.922779,-44.130539,-19.021851,,,,,,,
1537456278.509774,-0.816306,0.593178,1.485117,1.637783,-0.441887,-0.080165,-0.604149,-0.558999,-0.567912,0.096184,0.087899,0.036540,-10.449142,-45.155399,-14.376099,,,,,,,
1537456278.539641,-0.846807,0.608744,1.500827,0.028543,-0.877063,-0.163816,-0.614593,-0.571838,-0.543394,-0.010620,-0.045777,0.002057,-10.556126,-45.215950,-13.180969,,,,,,,
1537456278.569509,-0.860356,0.606941,1.479797,-0.683160,-0.996643,-0.377167,-0.622680,-0.570358,-0.535688,0.098480,-0.055146,-0.028292,-10.448174,-44.964966,-13.179565,,,,,,,
1537456278.599375,-0.866502,0.596609,1.450556,-0.868783,-0.353216,-0.062569,-0.630418,-0.561840,-0.535638,0.150697,-0.089512,0.009973,-10.226723,-44.957935,-13.491760,,,,,,,
1537456278.629243,-0.852357,0.572664,1.444924,-0.525211,0.671474,0.874767,-0.632727,-0.541873,-0.553200,0.101294,-0.038175,0.012413,-10.429165,-44.447899,-14.692993,,,,,,,
1537456278.659111,-0.845636,0.532421,1.444809,-1.233134,0.296035,1.213119,-0.644801,-0.507621,-0.571448,0.181803,-0.322884,0.246085,-11.562199,-43.615391,-16.286255,,,,,,,
1537456278.688977,-0.826103,0.470194,1.446689,-1.335627,0.617119,1.637866,-0.655502,-0.453060,-0.604197,0.033248,-0.038380,-0.007314,-12.367069,-43.149658,-17.215637,,,,,,,
1537456278.718844,-0.819390,0.416802,1.437871,-1.529641,-0.033640,0.637435,-0.668171,-0.404839,-0.624223,-0.032925,0.061668,-0.040099,-13.586933,-41.743011,-19.664001,,,,,,,
1537456278.748713,-0.808701,0.386790,1.405681,-1.190643,-0.129131,-0.123523,-0.669950,-0.377218,-0.639432,-0.064959,-0.131892,-0.086856,-13.719784,-41.316120,-20.758179,,,,,,,
1537456278.778579,-0.808048,0.368239,1.391658,-0.458872,-0.231283,0.425833,-0.674476,-0.359973,-0.644594,-0.117425,-0.049772,-0.030149,-13.650951,-41.103527,-22.012634,,,,,,,
1537456278.808446,-0.824574,0.343558,1.396078,-0.670580,-0.461755,0.698535,-0.691350,-0.336840,-0.639198,-0.058268,0.174242,0.036918,-14.120800,-40.697292,-22.221436,,,,,,,
1537456278.838313,-0.821356,0.314272,1.379869,-1.315081,0.076398,0.132269,-0.696214,-0.309124,-0.647864,0.024950,-0.001392,-0.036569,-14.654179,-39.764084,-23.436096,,,,,,,
1537456278.868181,-0.808787,0.287475,1.339804,-1.574667,-0.002158,-0.596088,-0.693762,-0.283532,-0.662046,-0.126581,-0.014945,-0.008578,-14.560112,-39.353882,-24.539490,,,,,,,
1537456278.898048,-0.813331,0.289540,1.323939,0.618403,-0.137981,-0.180459,-0.696336,-0.285512,-0.658482,0.134950,0.009221,0.066517,-13.953651,-39.188625,-25.591797,,,,,,,
1537456278.927915,-0.823014,0.312787,1.341622,0.777455,-0.176454,-0.249885,-0.697624,-0.307711,-0.647020,0.015724,0.045977,-0.090346,-13.794262,-39.548309,-24.966614,,,,,,,
1537456278.957783,-0.830189,0.323190,1.326350,-0.637814,-0.447822,-0.861831,-0.699847,-0.317593,-0.639803,-0.071607,0.064938,0.031237,-13.637642,-40.296001,-24.265747,,,,,,,
1537456278.987650,-0.831389,0.328251,1.308453,0.114014,-0.213222,0.059570,-0.699418,-0.322388,-0.637872,0.154267,0.079224,-0.082190,-13.138416,-40.252510,-24.502136,,,,,,,
1537456279.017517,-0.851398,0.311902,1.333179,0.092837,-0.470019,0.994132,-0.715910,-0.306869,-0.627140,-0.208712,-0.210556,0.024936,-14.167854,-40.120003,-24.245789,,,,,,,
1537456279.047385,-0.872640,0.316962,1.326462,-0.185545,-1.003210,-1.075254,-0.727870,-0.311681,-0.610786,-0.076345,0.028539,0.073296,-14.625828,-39.803162,-23.868958,,,,,,,
1537456279.077251,-0.906574,0.327921,1.270101,-1.442681,-1.061917,-1.169500,-0.745439,-0.322076,-0.583599,-0.158171,0.140557,-0.054493,-13.937698,-40.269241,-23.919800,,,,,,,
1537456279.107120,-0.946172,0.334452,1.262256,-0.111009,-1.226864,0.013787,-0.766235,-0.328252,-0.552389,0.094192,0.130315,0.377936,-13.901829,-40.336163,-23.721375,,,,,,,
1537456279.136986,-0.977521,0.326465,1.262058,-0.526617,-0.289191,0.714510,-0.785322,-0.320697,-0.529550,-0.017702,0.070300,0.287652,-14.814007,-40.276539,-23.148071,,,,,,,
1537456279.166853,-0.954998,0.281357,1.256859,-1.414384,1.062787,1.104290,-0.784215,-0.277660,-0.554899,-0.011867,-0.061467,0.061307,-15.405476,-39.622463,-23.636963,,,,,,,
1537456279.196720,-0.921241,0.236551,1.221825,-1.790133,0.197580,0.014755,-0.774176,-0.234351,-0.587989,-0.011774,0.120306,-0.358529,-15.629017,-37.453304,-26.563232,,,,,,,
1537456279.226588,-0.919204,0.212428,1.203456,0.105555,-0.628970,1.210773,-0.777246,-0.210834,-0.592821,0.336603,0.053562,-0.196012,-16.327290,-36.232765,-27.790955,,,,,,,
1537456279.256455,-0.959399,0.161122,1.267127,0.676401,-1.259153,3.312480,-0.808241,-0.160426,-0.566577,-0.022448,-0.247838,-0.073010,-18.105762,-35.406906,-26.956360,,,,,,,
1537456279.286322,-0.992841,0.109894,1.311054,0.135564,-0.294924,1.091861,-0.832529,-0.109673,-0.543017,-0.085394,-0.030937,-0.003904,-21.531696,-33.278984,-25.428955,,,,,,,
1537456279.316189,-0.994961,0.114009,1.330528,0.760857,0.098848,-0.195688,-0.833293,-0.113763,-0.541000,-0.194112,0.002328,0.170074,-21.736717,-33.503571,-25.187012,,,,,,,
1537456279.346056,-0.994949,0.129934,1.341628,0.574311,0.125168,-0.041288,-0.831661,-0.129569,-0.539955,0.050991,0.046103,-0.036583,-21.572334,-33.924114,-24.467834,,,,,,,
1537456279.375924,-0.996173,0.119117,1.367756,0.648494,0.257871,1.231896,-0.833449,-0.118835,-0.539667,0.082243,0.018844,-0.059332,-21.783798,-33.619598,-24.054626,,,,,,,
1537456279.405791,-0.999325,0.105926,1.415956,1.357686,-0.632596,1.080955,-0.836392,-0.105728,-0.537839,-0.029911,-0.033798,-0.029346,-22.936676,-32.842484,-23.267517,,,,,,,
1537456279.435658,-1.033557,0.112520,1.472080,1.946650,-1.114714,0.772560,-0.853692,-0.112283,-0.508530,0.066491,0.017754,-0.040695,-23.723923,-32.549934,-21.819763,,,,,,,
1537456279.465525,-1.076777,0.119742,1.544607,2.438675,-0.813514,1.208487,-0.874130,-0.119456,-0.470773,0.125442,0.242930,-0.135397,-25.425873,-32.584122,-18.332947,,,,,,,
1537456279.495393,-1.111715,0.098269,1.647296,2.812593,-0.817940,3.105816,-0.892135,-0.098111,-0.440987,0.025604,0.079389,-0.258323,-26.550949,-32.215649,-16.161926,,,,,,,
1537456279.525260,-1.156481,0.038551,1.752507,1.597917,-1.887018,2.470325,-0.914712,-0.038542,-0.402264,-0.592231,-0.137728,0.391766,-29.558788,-28.323988,-12.320374,,,,,,,
1537456279.555127,-1.194177,0.032375,1.764609,-0.686148,-1.363658,-0.958162,-0.929426,-0.032369,-0.367586,-0.146074,-0.243250,0.144838,-30.313515,-27.331039,-11.393738,,,,,,,
1537456279.584994,-1.213331,0.063045,1.695986,-2.184145,-0.076702,-1.839871,-0.934926,-0.063003,-0.349206,-0.020030,0.053497,0.225717,-29.354061,-28.922825,-11.517883,,,,,,,
1537456279.614862,-1.195916,0.079889,1.630038,-1.544033,0.392720,-0.781368,-0.927583,-0.079805,-0.364994,0.054521,-0.331099,-0.126584,-28.946625,-29.839043,-12.784790,,,,,,,
1537456279.644729,-1.188200,0.083447,1.575501,-1.648437,0.403601,-0.951820,-0.924470,-0.083350,-0.372031,0.132585,0.013251,0.095252,-28.220024,-30.421223,-15.044373,,,,,,,
1537456279.674596,-1.165627,0.107312,1.532873,-0.287081,0.622092,-1.706743,-0.913749,-0.107106,-0.391907,0.228843,0.000340,-0.166290,-27.520473,-30.835691,-16.105957,,,,,,,
1537456279.704463,-1.157776,0.191357,1.510796,0.793985,-0.023313,-3.325206,-0.899195,-0.190191,-0.394051,-0.312948,0.104452,0.058831,-25.117691,-33.534443,-16.901855,,,,,,,
1537456279.734331,-1.156488,0.269953,1.498451,0.163837,-0.027804,-1.725844,-0.882243,-0.266686,-0.387977,0.256129,-0.164222,-0.171761,-23.521599,-35.457489,-16.639648,,,,,,,
1537456279.764198,-1.123556,0.266252,1.452580,-2.346744,1.028190,0.099779,-0.869873,-0.263117,-0.417240,0.160157,-0.082510,0.022190,-21.710293,-36.938011,-17.627441,,,,,,,
1537456279.794065,-1.074445,0.223790,1.390868,-0.811560,0.113108,0.519410,-0.857398,-0.221927,-0.464345,-0.027734,0.161761,-0.401958,-21.238159,-36.574150,-19.787659,,,,,,,
1537456279.823932,-1.057590,0.256566,1.395061,0.123047,0.133783,-1.701117,-0.842658,-0.253761,-0.474902,0.073875,0.026786,-0.021436,-20.809799,-36.217773,-21.621765,,,,,,,
1537456279.853799,-1.052627,0.324469,1.362002,0.230003,0.115211,-2.771753,-0.823397,-0.318806,-0.469447,-0.084425,-0.026546,0.004969,-18.071629,-38.458263,-21.359070,,,,,,,
1537456279.883667,-1.023990,0.387094,1.324826,0.255004,0.688741,-2.078763,-0.790988,-0.377499,-0.481490,0.094607,-0.024875,0.040923,-16.355740,-39.453487,-21.764038,,,,,,,
1537456279.913534,-0.990934,0.444847,1.311477,0.873154,0.816360,-1.742406,-0.755123,-0.430319,-0.494584,0.132778,-0.158121,-0.002669,-13.082108,-40.993053,-21.687622,,,,,,,
1537456279.943401,-0.961261,0.500109,1.301433,0.546466,1.011327,-1.634871,-0.719500,-0.479521,-0.502374,0.334520,-0.150209,0.062936,-11.544640,-42.097481,-21.371643,,,,,,,
1537456279.973268,-0.938327,0.546949,1.301944,1.324328,0.577618,-0.960367,-0.688904,-0.520084,-0.504900,-0.163498,-0.097683,-0.107481,-8.946117,-43.567390,-20.213562,,,,,,,
1537456280.003136,-0.943401,0.594413,1.313918,1.277863,-0.212219,-1.385333,-0.670701,-0.560022,-0.486348,-0.121779,-0.090429,-0.142986,-7.983978,-44.359348,-19.306580,,,,,,,
1537456280.033003,-0.933971,0.675005,1.320753,2.318799,1.104424,-2.376780,-0.627676,-0.624901,-0.464242,0.000448,-0.161690,-0.191718,-4.954330,-46.404125,-16.886658,,,,,,,
1537456280.062870,-0.931955,0.782062,1.378598,3.634007,1.258623,-1.577022,-0.569546,-0.704744,-0.423028,-0.159686,-0.186263,-0.020637,-2.743645,-47.318142,-14.300598,,,,,,,
1537456280.092737,-0.956638,0.857896,1.461679,2.503126,1.524703,-0.924454,-0.534512,-0.756468,-0.376898,-0.147266,0.698302,-0.005289,-0.422293,-48.866318,-8.383301,,,,,,,
1537456280.122606,-0.940842,0.911982,1.527541,2.088330,2.661749,-0.283490,-0.494674,-0.790719,-0.360639,0.221161,0.180810,-0.064028,0.287066,-49.077305,-6.401917,,,,,,,
1537456280.152473,-0.908532,0.948439,1.597072,2.105581,3.144909,-0.043147,-0.459717,-0.812507,-0.358459,0.217011,0.025504,-0.598663,0.119448,-49.103382,-3.011841,,,,,,,
1537456280.182340,-0.873366,0.947016,1.665501,-0.143555,2.671134,1.297430,-0.447715,-0.811676,-0.375143,0.364173,0.207993,0.236441,-0.658800,-49.086594,-1.355652,,,,,,,
1537456280.212207,-0.848744,0.897595,1.702151,-0.090823,1.493486,1.826578,-0.467900,-0.781829,-0.412083,-0.040065,-0.358612,-0.028713,-3.501297,-48.712395,-1.252197,,,,,,,
1537456280.242075,-0.862194,0.898951,1.769517,1.508852,0.765129,0.127198,-0.472595,-0.782674,-0.405062,-0.515900,-0.283930,-0.023573,-5.083229,-48.656891,-0.757629,,,,,,,
1537456280.271942,-0.885272,0.944140,1.801112,1.116084,-0.362714,-1.323213,-0.453955,-0.809993,-0.371262,-0.178445,0.422786,-0.287551,-5.017841,-48.147156,2.093079,,,,,,,
1537456280.301809,-0.875390,0.981088,1.775527,0.190086,-0.492007,-0.940466,-0.426984,-0.831103,-0.356303,-0.080752,-0.106717,-0.020848,-3.972992,-48.349197,3.354309,,,,,,,
1537456280.331676,-0.878468,1.013006,1.760650,0.788460,-0.499588,-1.233889,-0.407445,-0.848427,-0.337877,-0.070171,-0.252846,0.001024,-2.190329,-48.489326,4.019165,,,,,,,
1537456280.361543,-0.922330,1.063925,1.783022,1.545303,-0.995722,-1.034169,-0.386904,-0.874267,-0.293191,-0.102857,-0.135346,0.012643,-1.235491,-48.364552,4.833374,,,,,,,
1537456280.391411,-0.971773,1.120666,1.809782,1.272860,-0.979157,-1.464692,-0.359329,-0.900390,-0.245315,0.147049,0.031631,-0.039642,0.853748,-47.632427,7.478699,,,,,,,
1537456280.421278,-0.993463,1.169227,1.817280,0.853567,-0.437311,-1.109538,-0.327512,-0.920449,-0.213329,0.145383,0.176949,-0.102695,3.057299,-47.297527,9.598145,,,,,,,
1537456280.451145,-0.996727,1.221713,1.812550,1.116895,-0.059673,-1.876396,-0.287207,-0.939687,-0.185744,-0.045282,0.097981,-0.011873,4.133451,-46.986141,10.611572,,,,,,,
1537456280.481012,-1.010581,1.287132,1.821929,1.074177,-0.048182,-1.411128,-0.237093,-0.960036,-0.148716,0.084917,0.382751,0.079136,7.020777,-46.040840,12.617676,,,,,,,
1537456280.510880,-1.027848,1.296728,1.830587,-0.069353,-0.558871,0.128827,-0.231727,-0.962678,-0.139834,-0.129724,-0.166396,-0.183500,7.587833,-45.813057,13.016174,,,,,,,
1537456280.540747,-1.055587,1.294544,1.836393,-0.163876,-0.823712,0.217308,-0.237345,-0.962084,-0.134389,0.141077,0.005724,0.090535,7.739889,-45.851509,13.078918,,,,,,,
1537456280.570614,-1.051688,1.295763,1.825415,0.051635,-0.027511,-0.467611,-0.235800,-0.962416,-0.134731,0.130439,-0.045335,0.041851,7.939602,-45.858856,13.082825,,,,,,,
1537456280.600481,-1.041903,1.367508,1.806432,1.379705,0.308802,-2.550585,-0.174305,-0.979408,-0.101869,0.045078,-0.221337,-0.114424,10.414238,-45.143173,14.458923,,,,,,,
1537456280.630349,-0.995463,1.422267,1.750628,0.479443,-0.739570,-1.319059,-0.124159,-0.988990,-0.080520,-0.059862,0.043296,0.248199,11.647303,-44.292786,15.291992,,,,,,,
1537456280.660216,-1.055138,1.448882,1.801718,0.170783,-0.246565,0.359305,-0.105797,-0.992578,-0.059967,0.044915,0.378549,0.017685,13.484990,-43.425114,16.171692,,,,,,,
1537456280.690083,-1.053742,1.439649,1.812496,-0.017652,0.830672,0.073212,-0.113675,-0.991413,-0.064642,0.073743,-0.103085,-0.008371,13.259603,-43.461884,16.245544,,,,,,,
1537456280.719950,-1.016543,1.431842,1.825169,0.033133,2.922737,0.489198,-0.117769,-0.990361,-0.072896,0.009386,0.116872,0.334065,11.798395,-43.501427,16.863647,,,,,,,
1537456280.749817,-0.987202,1.432203,1.962238,0.622631,4.847609,-0.849021,-0.115284,-0.990411,-0.076124,-0.220181,0.191705,-0.223925,9.683050,-43.537655,18.136841,,,,,,,
1537456280.779685,-0.972983,1.465390,2.002919,0.428621,0.828041,0.019511,-0.086963,-0.994450,-0.059216,0.147601,-0.106823,0.150006,7.182783,-42.989056,19.891724,,,,,,,
1537456280.809552,-0.960821,1.474584,2.009176,0.207906,0.372207,-0.311798,-0.078738,-0.995375,-0.055029,-0.101773,-0.216585,-0.132609,6.904360,-42.697563,20.205078,,,,,,,
1537456280.839419,-0.863493,1.486687,1.932091,0.141392,1.083878,-0.466282,-0.063856,-0.996465,-0.054588,0.064024,0.059377,0.036414,7.056767,-42.616318,20.361755,,,,,,,
1537456280.869286,-0.823116,1.492431,1.934114,0.140122,1.735448,0.114200,-0.057404,-0.996931,-0.053229,0.206741,-0.137118,0.057318,6.759933,-42.620590,20.256042,,,,,,,
1537456280.899154,-0.769937,1.496909,1.929122,0.116790,1.565601,-0.374768,-0.051383,-0.997272,-0.052997,-0.043084,-0.081616,-0.047452,5.338181,-42.448662,20.867615,,,,,,,
1537456280.929021,-0.570230,1.507679,1.763394,0.048465,0.719141,-0.585868,-0.034047,-0.998009,-0.053092,-0.031672,-0.040764,-0.116311,4.813818,-42.463017,21.273315,,,,,,,
1537456280.958888,-0.440329,1.511126,1.635922,-0.047752,-0.214760,-0.131451,-0.025419,-0.998220,-0.053947,0.064649,0.120581,-0.058541,4.979214,-42.309185,21.066650,,,,,,,
1537456280.988755,-0.323944,1.512658,1.549551,0.024192,3.364472,-0.247594,-0.018496,-0.998310,-0.055084,0.304278,-0.097744,0.684082,5.081711,-42.117958,20.990601,,,,,,,
1537456281.018623,-0.341080,1.514665,1.624923,0.081525,0.992483,0.203407,-0.018766,-0.998425,-0.052869,-0.114047,-0.087802,-0.107425,3.207302,-42.118931,21.102051,,,,,,,
1537456281.048490,-0.411977,1.513325,1.699262,-0.036838,-0.195269,0.122493,-0.023000,-0.998349,-0.052634,0.054403,0.206326,0.017478,2.578854,-42.402653,21.212158,,,,,,,
1537456281.078357,-0.410170,1.511982,1.686722,-0.064258,-0.539547,-0.064091,-0.023439,-0.998271,-0.053903,0.069612,0.057200,-0.041831,2.745760,-42.445496,21.240112,,,,,,,
1537456281.108224,-0.422461,1.509647,1.673423,-0.084948,-0.975784,0.034928,-0.025056,-0.998131,-0.055739,-0.033415,0.018868,-0.023759,3.634604,-42.168091,21.167419,,,,,,,
1537456281.138091,-0.441703,1.508405,1.675410,0.003032,-0.211386,-0.006321,-0.026654,-0.998054,-0.056367,-0.007053,-0.006890,0.047212,3.814455,-42.325031,21.014648,,,,,,,
1537456281.167959,-0.474256,1.507680,1.706521,0.005466,0.112320,0.100236,-0.028802,-0.998009,-0.056108,0.019708,-0.139015,0.065553,3.909298,-42.370705,21.012939,,,,,,,
1537456281.197826,-0.442408,1.508993,1.673551,0.037276,-0.112776,-0.173968,-0.026439,-0.998091,-0.055812,-0.026951,0.007689,-0.038778,3.968737,-42.417458,21.194397,,,,,,,
1537456281.227693,-0.380408,1.510285,1.609118,0.046444,-0.091814,-0.050901,-0.022453,-0.998170,-0.056147,0.125495,-0.023818,-0.094014,4.437185,-42.434219,20.889160,,,,,,,
1537456281.257560,-0.346365,1.510727,1.568449,0.004155,-0.320820,-0.191965,-0.020380,-0.998196,-0.056468,0.041712,0.033078,-0.047262,4.368282,-42.452267,20.938538,,,,,,,
1537456281.287428,-0.360877,1.512379,1.577814,0.044292,-0.370559,0.020013,-0.020615,-0.998294,-0.054623,0.058106,-0.050549,-0.086719,4.596224,-42.236008,20.853943,,,,,,,
1537456281.317295,-0.297280,1.511401,1.498266,-0.016669,-0.463492,-0.208587,-0.017387,-0.998237,-0.056755,-0.075981,-0.001657,-0.045601,4.930779,-42.316910,20.934814,,,,,,,
1537456281.347162,-0.195972,1.511900,1.385480,-0.016780,-0.167019,-0.180554,-0.011462,-0.998266,-0.057736,0.077029,-0.000437,0.039883,5.754711,-42.399380,20.881470,,,,,,,
1537456281.377029,-0.157875,1.511910,1.347319,0.016915,-0.040483,0.057173,-0.009253,-0.998267,-0.058121,0.089484,0.009863,-0.058731,5.746857,-42.363438,20.791748,,,,,,,
1537456281.406896,-0.356143,1.509232,1.534036,0.013428,-0.562694,0.576618,-0.021451,-0.998106,-0.057664,0.128660,-0.185458,-0.038543,5.668009,-42.291515,20.831726,,,,,,,
1537456281.436764,-0.651474,1.497937,1.815350,-0.006527,-0.228226,0.646528,-0.044141,-0.997347,-0.057888,0.006330,0.000353,0.064205,5.383121,-42.441452,20.759460,,,,,,,
1537456281.466631,-0.874669,1.481130,2.037523,0.009613,0.032242,0.798824,-0.068711,-0.995983,-0.057421,0.049271,0.097759,0.024111,4.408375,-42.418526,20.932556,,,,,,,
1537456281.496498,-0.978736,1.466840,2.140205,-0.087477,-0.195453,0.396481,-0.086106,-0.994601,-0.057910,-0.156539,0.024173,0.036624,3.720726,-42.511879,21.255371,,,,,,,
1537456281.526365,-0.974231,1.464591,2.125021,-0.076221,-0.137900,-0.066135,-0.087695,-0.994366,-0.059554,0.008838,0.024059,0.067184,3.540802,-42.562775,21.227173,,,,,,,
1537456281.556233,-0.960417,1.462445,2.119940,-0.042814,0.667473,0.023844,-0.088612,-0.994136,-0.061982,-0.003719,-0.039937,0.100450,3.638000,-42.716225,21.084900,,,,,,,
1537456281.586100,-0.918657,1.465670,2.090449,-0.037415,0.050780,-0.247232,-0.083398,-0.994479,-0.063681,-0.086723,0.039065,-0.080911,3.393646,-42.794403,20.997131,,,,,,,
1537456281.615967,-0.873906,1.471334,2.044597,0.047958,0.044728,-0.214612,-0.076145,-0.995058,-0.063733,0.093785,-0.040038,-0.002765,3.734472,-42.775425,20.867310,,,,,,,
1537456281.645834,-0.848369,1.475526,2.021638,0.037150,0.172093,-0.107550,-0.071364,-0.995465,-0.062898,0.053313,0.057065,0.002031,3.922274,-42.712158,21.051697,,,,,,,
1537456281.675702,-0.770619,1.485382,1.943164,0.039789,-0.230692,-0.741715,-0.059426,-0.996354,-0.061209,-0.182166,0.135728,-0.076578,4.544516,-42.559818,20.995117,,,,,,,
1537456281.705569,-0.485893,1.507162,1.645964,0.187769,-0.385371,-1.081531,-0.029696,-0.997976,-0.056230,-0.058545,-0.058527,-0.004134,5.445473,-42.691238,20.880920,,,,,,,
1537456281.735436,0.015832,1.502356,1.138938,-0.708980,-0.145556,-0.888130,0.001083,-0.997659,-0.068377,0.222825,0.095758,0.073946,7.428968,-42.479939,20.352539,,,,,,,
1537456281.765303,0.224184,1.497560,0.951698,-0.035731,1.227311,-0.276669,0.016267,-0.997319,-0.071339,0.083389,-0.147914,0.170079,7.785606,-42.666740,20.201172,,,,,,,
1537456281.795170,0.314429,1.495407,0.903192,-0.005990,1.166056,-0.231421,0.023293,-0.997160,-0.071624,-0.114068,-0.066744,-0.076188,6.939796,-42.585869,20.393738,,,,,,,
1537456281.825038,0.507211,1.488739,0.735965,-0.025735,0.573420,-0.671132,0.039814,-0.996635,-0.071647,-0.088902,0.030662,-0.077432,6.840853,-42.407928,20.202026,,,,,,,
1537456281.854905,0.622377,1.483159,0.633735,0.001847,0.646730,-0.158303,0.051025,-0.996162,-0.071115,0.120026,-0.269096,0.064523,6.921961,-42.329102,20.435425,,,,,,,
1537456281.884772,0.748675,1.474531,0.516379,0.026258,-0.016554,-0.676605,0.065424,-0.995370,-0.070415,-0.080729,0.078576,-0.099492,7.044470,-42.399719,20.224548,,,,,,,
1537456281.914639,0.841068,1.465642,0.421304,0.026330,0.042757,-0.222472,0.078232,-0.994476,-0.069973,0.120697,-0.072876,0.013515,7.796030,-42.312805,20.158020,,,,,,,
1537456281.944507,0.942822,1.453537,0.324574,0.057305,-0.036161,-0.669957,0.094669,-0.993133,-0.068732,0.054745,0.043396,-0.083048,8.306091,-42.384346,20.244751,,,,,,,
1537456281.974374,0.937208,1.457453,0.319105,0.086169,-0.516121,0.386847,0.091148,-0.993584,-0.066960,0.110833,-0.171547,-0.005184,8.693430,-42.321835,20.395386,,,,,,,
1537456282.004241,0.916643,1.461624,0.308034,0.147562,-1.311661,0.103463,0.086463,-0.994047,-0.066298,-0.091956,-0.174914,-0.067979,8.665939,-42.423046,20.363708,,,,,,,
1537456282.034108,0.918563,1.466621,0.263657,0.279499,-1.474876,-0.054882,0.082642,-0.994579,-0.063117,0.163742,0.203731,-0.004526,9.770586,-42.035984,20.327393,,,,,,,
1537456282.063975,0.965580,1.465979,0.174653,0.248308,-1.298064,-0.178483,0.086042,-0.994512,-0.059526,0.135439,-0.016139,-0.029540,10.736715,-42.049564,20.196045,,,,,,,
1537456282.093843,1.037630,1.465144,0.068040,0.328735,-1.072102,-0.335491,0.090820,-0.994424,-0.053600,-0.092803,-0.082984,0.036846,12.024288,-41.559807,20.265381,,,,,,,
1537456282.123709,1.168914,1.456853,-0.078073,0.295322,0.243438,-0.538212,0.104638,-0.993516,-0.044472,-0.076348,-0.007385,0.221856,12.507204,-41.517303,20.485352,,,,,,,
1537456282.153576,1.310787,1.435104,-0.127106,-0.125995,3.928261,-0.912800,0.130730,-0.990808,-0.034778,-0.166542,-0.094840,-0.044369,12.296840,-41.006222,21.034607,,,,,,,
1537456282.183443,1.423579,1.403234,-0.155307,-0.048996,1.729890,-0.887041,0.164975,-0.985994,-0.024464,0.171634,0.273134,-0.275295,11.372597,-41.057938,21.680481,,,,,,,
1537456282.213310,1.461721,1.387375,-0.172211,0.021803,0.355141,-0.239106,0.181309,-0.983225,-0.019855,0.097682,0.091761,-0.091656,11.055349,-40.863045,21.699036,,,,,,,
1537456282.243178,1.462622,1.396379,-0.164127,-0.056566,0.315910,0.513841,0.172519,-0.984828,-0.018735,0.002195,0.033320,0.044370,10.360167,-40.892902,21.892517,,,,,,,
1537456282.273045,1.447158,1.409926,-0.160700,0.027726,-1.027544,0.206445,0.158953,-0.987088,-0.019753,0.018537,0.055753,-0.124946,10.108778,-40.950241,22.006042,,,,,,,
1537456282.302912,1.435930,1.417949,-0.141543,-0.051906,0.279026,0.248895,0.150869,-0.988342,-0.020471,-0.119634,0.016982,-0.141775,9.658754,-41.126766,21.928162,,,,,,,
1537456282.332779,1.424892,1.422957,-0.128379,-0.042608,0.000802,0.237508,0.145733,-0.989092,-0.021415,0.050022,0.008425,-0.017113,9.365204,-41.088001,21.944458,,,,,,,
1537456282.362647,1.396232,1.437304,-0.098768,-0.008523,-0.382762,0.654961,0.131070,-0.991103,-0.023115,0.249225,-0.030259,-0.131532,8.732738,-41.312180,21.831543,,,,,,,
1537456282.392514,1.336807,1.455389,-0.080233,0.022132,-1.358572,0.534288,0.112011,-0.993348,-0.026698,-0.175564,0.037660,0.067760,8.972502,-41.294029,22.020691,,,,,,,
1537456282.422381,1.308403,1.460299,-0.067922,-0.027921,0.225882,-0.009081,0.106495,-0.993901,-0.028603,-0.032322,-0.111674,0.158974,9.156294,-41.274582,21.679260,,,,,,,
1537456282.452248,1.311532,1.461197,-0.049058,-0.012412,0.283720,-0.005630,0.105721,-0.994000,-0.028041,0.009681,0.047986,-0.194386,8.837856,-41.192932,21.949097,,,,,,,
1537456282.482115,1.314387,1.460648,-0.055990,-0.010183,0.033704,0.025604,0.106328,-0.993940,-0.027877,0.048289,-0.033389,0.081191,8.754944,-41.477314,21.836975,,,,,,,
1537456282.511983,1.311196,1.462566,-0.048001,-0.011206,0.116278,0.005984,0.104395,-0.994149,-0.027727,-0.009882,0.007699,-0.016341,8.588999,-41.603706,21.664856,,,,,,,
1537456282.541850,1.315661,1.457859,-0.046910,-0.060891,0.153263,-0.200316,0.109046,-0.993629,-0.028441,0.061685,0.014198,-0.002809,8.554958,-41.584373,21.761536,,,,,,,
1537456282.571717,1.309495,1.455536,-0.042148,-0.004074,-0.180849,0.070346,0.111096,-0.993365,-0.029709,-0.003460,-0.070203,-0.020187,8.500261,-41.440269,21.686646,,,,,,,
1537456282.601584,1.306836,1.456565,-0.038415,-0.008012,0.168976,0.027920,0.110034,-0.993483,-0.029739,-0.001376,-0.020632,0.005279,8.551706,-41.577499,21.726501,,,,,,,
1537456282.631451,1.302082,1.457505,-0.030223,-0.024970,0.041011,-0.042122,0.108988,-0.993589,-0.030013,0.045187,0.030043,-0.022646,8.353386,-41.462158,21.705505,,,,,,,
1537456282.661319,1.310621,1.453518,-0.044050,0.059521,-0.331950,-0.160547,0.113068,-0.993131,-0.030100,0.045684,-0.056613,-0.038870,8.557507,-41.194275,21.888489,,,,,,,
1537456282.691186,1.323020,1.452939,-0.062108,0.034166,0.040858,0.041271,0.113995,-0.993063,-0.028838,-0.052273,0.035757,0.018981,8.754078,-41.494534,21.772949,,,,,,,
1537456282.721053,1.325524,1.455717,-0.058816,0.002276,0.290715,0.126941,0.111386,-0.993386,-0.027881,0.025592,-0.018547,0.024830,8.504229,-41.525620,21.723633,,,,,,,
1537456282.750920,1.330874,1.457100,-0.060652,0.043908,-0.092548,0.007717,0.110202,-0.993544,-0.026959,0.071652,-0.015337,-0.053470,8.465343,-41.434963,22.013855,,,,,,,
1537456282.780787,1.338413,1.460054,-0.087674,0.279231,-1.796123,0.305741,0.107546,-0.993874,-0.025452,-0.064943,-0.255561,-0.210312,8.683786,-41.408939,21.765991,,,,,,,
1537456282.810655,1.356250,1.464169,-0.117260,-0.071522,0.702974,-0.015955,0.103985,-0.994321,-0.022658,0.053745,0.244244,0.185317,9.035841,-41.286819,21.712952,,,,,,,
1537456282.840522,1.344787,1.464537,-0.070072,-0.112004,0.875791,0.303523,0.103362,-0.994360,-0.023767,-0.154250,-0.195536,-0.054312,8.525059,-41.278503,21.846008,,,,,,,
1537456282.870389,1.325185,1.476870,-0.053600,0.081702,-0.680227,0.207021,0.090973,-0.995592,-0.022805,0.252151,0.027926,-0.112861,7.712774,-41.492832,21.749207,,,,,,,
1537456282.900256,1.288717,1.483133,-0.049304,0.055575,-1.928824,0.367471,0.084090,-0.996160,-0.024370,0.188889,0.072271,-0.226942,7.851164,-41.567848,21.859314,,,,,,,
1537456282.930123,1.129790,1.505832,0.044875,-0.036760,-1.546063,0.902244,0.058707,-0.997891,-0.027710,0.106820,0.025341,0.245789,8.769661,-41.399467,21.612488,,,,,,,
1537456282.959991,0.912979,1.519750,0.217083,0.009500,-1.855474,0.344987,0.040377,-0.998697,-0.031196,-0.115282,-0.107107,-0.106118,8.924294,-41.503742,21.705872,,,,,,,
1537456282.989858,0.910176,1.519417,0.166615,0.094709,-1.925406,-0.329813,0.040549,-0.998680,-0.031511,-0.098548,-0.055763,-0.030043,10.298822,-41.485336,21.396179,,,,,,,
1537456283.019725,0.975972,1.515335,0.044133,0.138924,-2.176598,-0.036925,0.045908,-0.998462,-0.031060,0.141058,0.006794,-0.158439,11.632071,-41.313644,21.451843,,,,,,,
1537456283.049592,0.917717,1.522577,0.044196,0.126624,-1.527191,0.317186,0.038275,-0.998838,-0.029283,0.200205,0.033612,0.070253,13.521792,-41.347210,20.718262,,,,,,,
1537456283.079459,0.663211,1.533418,0.279701,-0.055114,0.111367,0.615074,0.023000,-0.999301,-0.029439,-0.083745,0.000400,0.167486,13.635083,-41.264755,20.794495,,,,,,,
1537456283.109327,0.196013,1.539532,0.761056,-0.023703,0.553172,0.372013,0.006085,-0.999511,-0.030648,-0.287152,-0.054627,0.006356,12.326926,-41.464638,21.355957,,,,,,,
1537456283.139194,0.121254,1.538836,0.857094,-0.044494,0.719221,0.061906,0.003864,-0.999489,-0.031714,0.103069,0.012627,-0.016611,11.921167,-41.497269,21.327148,,,,,,,
1537456283.169061,0.066858,1.538701,0.926967,0.000048,0.469775,0.078039,0.002144,-0.999485,-0.032017,-0.001457,-0.013714,-0.005398,11.354031,-41.587032,21.433289,,,,,,,
1537456283.198928,-0.046452,1.538065,1.060381,-0.052932,0.912006,0.159993,-0.001520,-0.999464,-0.032690,-0.056525,0.057387,0.033407,10.903484,-41.629326,21.508850,,,,,,,
1537456283.228795,-0.017571,1.536364,1.074361,-0.045220,1.618728,0.022487,-0.000605,-0.999407,-0.034416,0.062479,-0.016279,-0.000282,9.642080,-41.789215,21.719360,,,,,,,
1537456283.258663,0.033838,1.536865,1.039469,0.058733,0.008560,-0.130629,0.001148,-0.999424,-0.033900,0.140851,-0.142818,-0.049672,8.890921,-41.951916,21.813232,,,,,,,
1537456283.288530,0.114508,1.538877,0.960068,0.080012,-0.152309,-0.056857,0.003646,-0.999491,-0.031698,-0.070540,-0.020254,-0.043803,9.049099,-41.573723,21.881714,,,,,,,
1537456283.318397,0.133954,1.541385,0.936654,0.057873,-0.057109,0.036898,0.003928,-0.999568,-0.029145,0.075723,0.100291,-0.003020,9.055325,-41.602791,21.935059,,,,,,,
1537456283.348264,0.245405,1.545278,0.798208,0.339587,-1.689065,-0.243781,0.006199,-0.999674,-0.024753,0.141246,-0.502874,-0.166089,9.522015,-41.714142,21.904785,,,,,,,
1537456283.378131,0.666108,1.555506,0.331999,0.261477,-1.147465,-0.097813,0.009451,-0.999883,-0.012025,-0.040563,0.522695,0.106400,10.366165,-41.403191,22.230103,,,,,,,
1537456283.407999,0.761970,1.553195,0.214311,-0.079808,-0.590201,0.072917,0.012147,-0.999845,-0.012730,-0.075670,-0.060046,0.018651,11.618319,-41.090183,22.281860,,,,,,,
1537456283.437866,0.702646,1.551832,0.259474,-0.053684,-0.456929,-0.053189,0.012250,-0.999820,-0.014466,0.064684,-0.020566,0.041780,12.071873,-41.111286,21.817993,,,,,,,
1537456283.467733,0.687690,1.551447,0.253831,0.047958,-1.037483,-0.009098,0.012283,-0.999813,-0.014953,0.066666,-0.015980,-0.128022,12.523779,-41.267754,21.647034,,,,,,,
1537456283.497600,0.705544,1.551298,0.209910,-0.054306,-0.449150,-0.004254,0.012632,-0.999810,-0.014830,-0.010664,0.089532,0.055220,13.468506,-41.020020,21.481628,,,,,,,
1537456283.527467,0.525752,1.549052,0.395240,-0.142164,0.282615,-0.054982,0.010905,-0.999764,-0.018794,-0.120997,-0.018120,-0.009999,13.435646,-41.060081,21.582825,,,,,,,
1537456283.557335,0.634695,1.547568,0.269372,0.123897,-1.059871,-0.037834,0.013763,-0.999730,-0.018692,0.172287,-0.141658,-0.101669,13.826487,-41.374691,21.192749,,,,,,,
1537456283.587202,1.117175,1.535254,-0.246864,0.069607,-0.962759,-1.060729,0.031931,-0.999368,-0.015567,0.235464,0.042917,0.024692,14.527315,-41.175201,21.168396,,,,,,,
1537456283.617069,1.226890,1.519316,-0.368278,-0.123096,0.021472,-0.065695,0.048442,-0.998675,-0.017349,0.035130,0.037768,0.078155,16.100868,-40.766144,20.933533,,,,,,,
1537456283.646936,1.120981,1.518699,-0.249465,-0.184693,0.450726,-0.018536,0.046891,-0.998643,-0.022640,-0.454560,-0.059874,-0.040180,16.094067,-40.628860,21.202148,,,,,,,
1537456283.676803,1.017957,1.519477,-0.130504,-0.167431,0.767323,0.192998,0.043655,-0.998683,-0.026936,0.134629,-0.047993,0.021504,15.623969,-40.927151,21.211792,,,,,,,
1537456283.706671,0.875492,1.520587,0.043344,-0.265577,1.204218,0.195435,0.038536,-0.998740,-0.032150,-0.019966,0.073752,0.019012,14.954321,-41.147964,21.150818,,,,,,,
1537456283.736538,0.659080,1.520836,0.301982,-0.292863,1.443058,0.438557,0.030583,-0.998752,-0.039480,-0.116383,0.022419,0.013098,13.216518,-41.427654,21.515320,,,,,,,
1537456283.766405,0.453246,1.517906,0.555958,-0.326356,1.592485,0.208755,0.023149,-0.998602,-0.047527,0.128798,0.113485,-0.069340,12.397490,-41.716576,21.593445,,,,,,,
1537456283.796272,0.344955,1.511878,0.701237,-0.264053,0.742486,0.185378,0.019911,-0.998265,-0.055413,0.091051,-0.137889,-0.007515,10.645521,-42.186222,21.521423,,,,,,,
1537456283.826139,0.324654,1.507408,0.748199,-0.143437,0.907739,-0.006527,0.020205,-0.997992,-0.060033,-0.038103,-0.103159,-0.003611,10.218208,-42.411972,21.476562,,,,,,,
1537456283.856007,0.305232,1.503885,0.782507,-0.131108,0.226816,-0.028368,0.020090,-0.997762,-0.063763,0.035528,0.003149,-0.037342,9.574860,-42.429493,21.440369,,,,,,,
1537456283.885874,0.314564,1.499707,0.780546,-0.130090,0.198918,-0.022907,0.021973,-0.997474,-0.067534,0.037933,0.014686,-0.015992,9.542112,-42.584824,21.250122,,,,,,,
1537456283.915741,0.307603,1.495828,0.793191,-0.145278,0.191715,0.007391,0.022676,-0.997191,-0.071377,0.071471,0.007308,0.010601,9.416819,-42.483013,21.204895,,,,,,,
1537456283.945608,0.298918,1.491665,0.805272,-0.146805,0.097992,-0.055869,0.023277,-0.996871,-0.075539,-0.029305,-0.008943,-0.012825,9.464977,-42.647610,20.955139,,,,,,,
1537456283.975475,0.301611,1.487308,0.810741,-0.144940,0.350648,0.013878,0.024771,-0.996517,-0.079625,0.045190,-0.023259,0.028126,9.310732,-42.601265,20.968750,,,,,,,
1537456284.005343,0.291373,1.483522,0.825180,-0.126813,-0.020014,-0.000411,0.025038,-0.996194,-0.083486,0.050005,0.000070,-0.035594,9.299950,-42.933109,20.809143,,,,,,,
1537456284.035210,0.275291,1.480611,0.842868,-0.099234,0.114074,0.029898,0.024480,-0.995936,-0.086667,0.021342,-0.008809,-0.003101,9.276115,-42.975937,20.798645,,,,,,,
1537456284.065077,0.274588,1.478521,0.847326,-0.057602,0.120958,-0.009696,0.024982,-0.995746,-0.088681,-0.012271,-0.019895,-0.017917,9.197460,-43.135674,20.707703,,,,,,,
1537456284.094944,0.260733,1.477750,0.864169,-0.014407,0.013574,0.068425,0.023949,-0.995674,-0.089761,0.055153,-0.012657,-0.033606,9.027653,-43.165852,20.623596,,,,,,,
1537456284.124811,0.242385,1.478645,0.881024,0.040804,-0.068531,0.076851,0.022085,-0.995757,-0.089322,0.030467,-0.001863,-0.027469,9.091887,-43.105606,20.530090,,,,,,,
1537456284.154680,0.203404,1.481537,0.918520,0.099779,-0.107310,0.164738,0.018005,-0.996019,-0.087293,0.051942,-0.010496,-0.071627,8.797127,-43.173748,20.739807,,,,,,,
1537456284.184546,0.153074,1.486220,0.964634,0.159272,-0.136923,0.159954,0.012878,-0.996426,-0.083473,0.019821,-0.003498,-0.035134,8.533274,-43.134769,21.007751,,,,,,,
1537456284.214413,0.096664,1.491860,1.018771,0.179285,-0.066033,0.203639,0.007609,-0.996886,-0.078470,0.033712,-0.007173,-0.024633,8.443338,-43.218277,21.372131,,,,,,,
1537456284.244280,0.011775,1.497239,1.099235,0.182770,-0.227034,0.218333,0.000865,-0.997296,-0.073469,0.028935,-0.013050,-0.028384,8.161072,-42.996780,21.460938,,,,,,,
1537456284.274148,-0.078898,1.502313,1.186583,0.177483,-0.042367,0.208872,-0.005392,-0.997656,-0.068199,-0.002253,0.000998,0.027931,8.023382,-42.866005,21.744446,,,,,,,
1537456284.304015,-0.178400,1.506113,1.283179,0.146401,-0.170921,0.203114,-0.011468,-0.997909,-0.063599,0.018151,-0.020310,-0.022308,7.572439,-42.749020,21.948425,,,,,,,
1537456284.333882,-0.259497,1.508298,1.363552,0.081605,-0.010821,0.104031,-0.016023,-0.998048,-0.060355,0.038698,0.010941,0.036810,7.345789,-42.562832,22.076538,,,,,,,
1537456284.363750,-0.291588,1.509477,1.389057,0.040284,-0.291323,-0.027171,-0.017612,-0.998121,-0.058678,-0.054028,-0.035952,0.007927,7.361496,-42.587303,22.050110,,,,,,,
1537456284.393616,-0.252076,1.510256,1.348619,-0.026747,-0.024502,-0.049126,-0.015087,-0.998168,-0.058578,0.001034,-0.020173,0.023986,7.547062,-42.592430,22.049377,,,,,,,
1537456284.423483,-0.222208,1.509267,1.311706,-0.057540,-0.145884,-0.118797,-0.013548,-0.998108,-0.059965,-0.022172,0.000046,0.086118,7.599136,-42.539139,22.164856,,,,,,,
1537456284.453351,-0.128954,1.506664,1.222653,-0.163401,0.079263,-0.177668,-0.008239,-0.997944,-0.063539,0.086349,-0.059505,-0.000181,7.680054,-42.483475,22.098511,,,,,,,
1537456284.483218,-0.042105,1.501021,1.122694,-0.243998,-0.690088,-0.246240,-0.002934,-0.997567,-0.069645,-0.132579,0.032006,0.015156,8.056864,-42.599255,21.823608,,,,,,,
1537456284.513085,0.062150,1.492427,1.009034,-0.317555,0.038383,-0.282467,0.004862,-0.996931,-0.078125,-0.315897,0.032499,0.152848,8.633274,-42.597580,21.638367,,,,,,,
1537456284.542953,0.181919,1.480358,0.906000,-0.435425,1.230016,-0.525574,0.016338,-0.995913,-0.088815,-0.091167,-0.050092,0.011667,9.621834,-43.147743,20.627258,,,,,,,
1537456284.572819,0.356492,1.464494,0.771400,-0.404451,0.533975,-0.527652,0.037026,-0.994355,-0.099423,0.251335,0.051957,-0.016772,9.859453,-43.197803,20.350891,,,,,,,
1537456284.602687,0.478048,1.445380,0.646730,-0.351117,0.318917,-0.691870,0.057543,-0.992146,-0.111059,-0.051791,-0.054455,0.028921,10.761389,-43.273258,19.985596,,,,,,,
1537456284.632555,0.585828,1.428423,0.561950,-0.274317,0.864995,-0.621848,0.078450,-0.989882,-0.118231,-0.043309,0.048964,-0.065637,11.557550,-43.595760,19.512573,,,,,,,
1537456284.662421,0.685416,1.412323,0.481721,-0.101676,0.544349,-0.629322,0.099893,-0.987469,-0.122170,0.064429,-0.032733,-0.068352,11.735277,-43.351540,19.254822,,,,,,,
1537456284.692288,0.774667,1.401999,0.403430,0.138142,0.268787,-0.510272,0.117510,-0.985787,-0.120059,0.119413,0.044000,-0.186398,12.553692,-43.255459,19.360535,,,,,,,
1537456284.722155,0.872430,1.397511,0.312591,0.363273,0.366923,-0.405794,0.132055,-0.985024,-0.110860,0.055568,0.012276,-0.089854,12.871831,-43.041199,19.413330,,,,,,,
1537456284.752023,0.980905,1.396699,0.213996,0.496657,0.251195,-0.312207,0.143944,-0.984883,-0.096356,0.000373,-0.041316,-0.207965,13.084359,-42.405651,19.628357,,,,,,,
1537456284.781890,1.072451,1.403867,0.136330,0.493594,0.554510,0.189516,0.145944,-0.986100,-0.079416,0.340445,0.025269,0.047053,12.849660,-42.208412,20.076599,,,,,,,
1537456284.811758,1.129854,1.420171,0.071469,0.585819,-0.388999,0.405292,0.135701,-0.988677,-0.064042,0.138393,-0.037125,-0.038253,12.132707,-41.768562,20.709290,,,,,,,
1537456284.841624,1.208266,1.441446,-0.004493,0.625409,0.227753,0.571790,0.120604,-0.991646,-0.045744,0.017854,0.011513,-0.020280,11.525114,-41.741562,20.964661,,,,,,,
1537456284.871491,1.331697,1.462313,-0.122411,0.656468,0.283012,0.523706,0.105187,-0.994121,-0.025641,-0.014168,0.003750,-0.002817,10.007816,-41.052956,21.846497,,,,,,,
1537456284.901360,1.513613,1.483665,-0.294806,0.654293,0.303091,0.660952,0.086876,-0.996206,-0.004973,0.106132,-0.021723,-0.011293,9.075823,-40.797344,22.401306,,,,,,,
1537456284.931226,1.775231,1.501818,-0.559815,0.647226,-0.358367,0.628929,0.067483,-0.997622,0.013991,0.016440,0.003786,-0.038634,7.523712,-40.220623,23.286438,,,,,,,
1537456284.961093,2.136724,1.510033,-0.927518,0.650037,-0.023064,0.493792,0.051255,-0.998155,0.032559,-0.065369,-0.002624,-0.000775,6.828257,-40.057384,23.278320,,,,,,,
1537456284.990960,2.479556,1.505851,-1.270743,0.615267,0.058977,0.310203,0.039893,-0.997892,0.051186,-0.080527,0.036268,0.031227,5.795713,-39.526630,24.389587,,,,,,,
1537456285.020828,2.697732,1.495728,-1.485820,0.504011,0.087579,0.228188,0.032206,-0.997184,0.067731,-0.003184,-0.017449,0.025928,5.571566,-39.103481,24.580933,,,,,,,
1537456285.050695,2.815725,1.484788,-1.606713,0.457370,-0.271134,0.117834,0.027499,-0.996304,0.081378,0.004606,-0.040287,0.017270,4.774723,-38.605278,25.069458,,,,,,,
1537456285.080562,2.856103,1.473450,-1.655346,0.360186,-0.105594,-0.029281,0.027371,-0.995266,0.093254,-0.050091,-0.029713,0.035972,4.717896,-38.444862,25.379028,,,,,,,
1537456285.110430,2.868036,1.463391,-1.664517,0.322217,0.053371,-0.088708,0.028961,-0.994238,0.103213,-0.001022,-0.001978,0.025694,4.792553,-37.804123,25.682312,,,,,,,
1537456285.140296,2.861175,1.454307,-1.659981,0.260377,-0.080193,-0.085004,0.032166,-0.993223,0.111685,0.054138,-0.023852,-0.009680,4.899569,-37.719566,25.886902,,,,,,,
1537456285.170163,2.856933,1.447104,-1.658532,0.202424,-0.193489,-0.099636,0.034648,-0.992360,0.118412,0.006551,0.003194,0.040935,4.894812,-37.544792,25.954224,,,,,,,
1537456285.200031,2.826992,1.439882,-1.631683,0.187965,0.120699,-0.199003,0.040394,-0.991443,0.124134,-0.075917,-0.025723,0.068249,5.246893,-37.153831,26.300659,,,,,,,
1537456285.229898,2.814091,1.432484,-1.608759,0.219803,0.185934,-0.187570,0.044350,-0.990450,0.130542,0.003364,0.057558,-0.040607,5.220379,-37.055458,26.279236,,,,,,,
1537456285.259765,2.800028,1.424958,-1.586424,0.199634,0.425639,-0.172439,0.048676,-0.989384,0.136924,0.035552,-0.033412,-0.016639,5.098698,-36.789307,26.199951,,,,,,,
1537456285.289632,2.785100,1.416950,-1.562763,0.210478,0.015034,-0.241619,0.053478,-0.988189,0.143603,0.009586,-0.015488,-0.129611,5.031286,-36.582695,26.569214,,,,,,,
1537456285.319499,2.742130,1.408164,-1.520403,0.185329,0.079134,-0.348754,0.062972,-0.986804,0.149165,-0.114272,-0.000775,0.098317,5.643297,-36.217331,26.400940,,,,,,,
1537456285.349367,2.724025,1.400016,-1.488640,0.177357,0.434281,-0.204824,0.068921,-0.985452,0.155347,0.135745,-0.015677,-0.032041,5.456757,-36.304665,26.383545,,,,,,,
1537456285.379234,2.696883,1.392663,-1.465952,0.182818,-0.366929,-0.247029,0.076227,-0.984176,0.159957,-0.009104,-0.058594,-0.024001,5.793070,-36.084229,26.447693,,,,,,,
1537456285.409101,2.678685,1.385109,-1.441262,0.121814,0.448404,-0.278828,0.082443,-0.982810,0.165192,-0.017883,-0.012430,0.006393,5.975420,-36.016590,26.415405,,,,,,,
1537456285.438968,2.631223,1.378424,-1.388592,-0.018180,0.024783,-0.456265,0.093395,-0.981553,0.166823,-0.038402,-0.004088,0.107454,6.179722,-35.886894,26.474060,,,,,,,
1537456285.468836,2.556585,1.372710,-1.308791,-0.142345,0.224856,-0.620877,0.108671,-0.980445,0.164068,-0.133024,0.007209,0.129038,6.368301,-35.847069,26.106140,,,,,,,
1537456285.498703,2.469991,1.364925,-1.209048,-0.212438,0.323713,-0.738596,0.127198,-0.978883,0.160025,-0.040452,-0.039015,0.041132,7.147911,-36.017220,26.010742,,,,,,,
1537456285.528570,2.375406,1.356848,-1.109237,-0.290342,0.090593,-0.710403,0.147221,-0.977200,0.152989,0.051342,-0.029025,0.016155,7.584373,-36.077030,25.767517,,,,,,,
1537456285.558437,2.282302,1.347832,-1.009874,-0.354582,0.137324,-0.725802,0.167472,-0.975246,0.144386,0.030312,-0.011829,0.009590,9.101028,-36.140823,25.608887,,,,,,,
1537456285.588304,2.193998,1.339465,-0.915686,-0.393469,-0.003692,-0.667393,0.186174,-0.973362,0.133813,-0.002519,0.031849,0.061088,9.594578,-36.348278,25.233032,,,,,,,
1537456285.618171,2.111573,1.328856,-0.825270,-0.395738,0.332467,-0.650174,0.205399,-0.970875,0.123339,0.009475,-0.041073,0.018675,10.681873,-36.607586,24.548218,,,,,,,
1537456285.648039,2.043202,1.319701,-0.753273,-0.345463,-0.248082,-0.500247,0.221252,-0.968641,0.113059,0.170777,-0.023821,-0.092139,11.267935,-36.907825,24.447021,,,,,,,
1537456285.677906,1.968780,1.310825,-0.691819,-0.375707,-0.492478,-0.484051,0.236962,-0.966397,0.099623,0.010169,-0.042910,-0.025252,12.681618,-37.001434,23.939026,,,,,,,
1537456285.707773,1.888861,1.301603,-0.620532,-0.551827,-0.337530,-0.551055,0.252613,-0.963986,0.083171,-0.085484,-0.026676,0.144780,13.384758,-37.037453,23.580383,,,,,,,
1537456285.737640,1.791159,1.289547,-0.528389,-0.823275,-0.420251,-0.671279,0.270843,-0.960709,0.060669,-0.052978,-0.119262,0.091919,14.761497,-37.218140,22.802246,,,,,,,
1537456285.767507,1.670574,1.271471,-0.413782,-1.094344,-0.269176,-0.838679,0.293408,-0.955536,0.029373,-0.134274,-0.342209,0.057755,15.750629,-37.418884,22.088257,,,,,,,
1537456285.797375,1.546139,1.241806,-0.297354,-1.280528,-0.618964,-1.150361,0.322988,-0.946369,-0.007966,-0.221075,-0.527340,0.038590,18.119225,-37.887619,20.530518,,,,,,,
1537456285.827242,1.426957,1.199646,-0.179522,-1.548491,-0.210994,-1.458824,0.358941,-0.931911,-0.051989,-0.438531,-0.484364,0.331530,21.010405,-38.048172,18.522949,,,,,,,
1537456285.857109,1.338642,1.143136,-0.078894,-1.676315,0.305516,-1.683758,0.403616,-0.909939,-0.095421,-0.322057,-0.532688,0.367592,22.972013,-38.099152,17.411255,,,,,,,
1537456285.886976,1.262013,1.077286,0.000953,-1.829266,-0.252018,-1.831274,0.451314,-0.880675,-0.143963,-0.374410,-0.470460,0.410168,27.127171,-36.909836,14.918396,,,,,,,
1537456285.916844,1.200266,1.001295,0.072170,-2.120328,0.097789,-2.218530,0.502618,-0.842170,-0.195254,-0.475519,-0.419717,0.379336,29.324203,-36.011719,13.384216,,,,,,,
1537456285.946711,1.187301,0.909822,0.125321,-2.099352,1.848252,-2.501039,0.569295,-0.789394,-0.229694,-0.097997,-0.420689,0.443073,33.744961,-33.096870,11.347107,,,,,,,
1537456285.976578,1.191052,0.835390,0.184063,-1.965035,1.203523,-0.732190,0.623093,-0.741558,-0.248687,-0.413926,-0.264164,0.328292,35.165932,-31.268995,10.852966,,,,,,,
1537456286.006445,1.227308,0.801992,0.244786,-1.528349,3.824387,-0.487299,0.654662,-0.718742,-0.234151,-1.620986,0.157555,0.837468,36.048088,-29.768112,11.684998,,,,,,,
1537456286.036312,1.308483,0.803012,0.306162,-1.313250,4.066408,1.218495,0.670784,-0.719451,-0.180106,-0.925469,0.229415,0.709433,35.788090,-29.543142,13.362854,,,,,,,
1537456286.066179,1.336817,0.843643,0.375691,-1.165505,1.551275,1.978467,0.646632,-0.747070,-0.154121,-0.503062,-0.040299,0.345573,33.345070,-30.980276,16.039612,,,,,,,
1537456286.096047,1.306757,0.913935,0.457273,-1.052785,1.026286,3.206541,0.589472,-0.791912,-0.159365,-0.360712,-0.151020,0.525682,32.384628,-32.425400,16.275574,,,,,,,
1537456286.125914,1.281597,1.000014,0.543685,-0.653866,2.512018,3.119800,0.517853,-0.841479,-0.154083,-0.490342,-0.281004,0.709487,29.125778,-36.183846,16.267212,,,,,,,
1537456286.155782,1.332147,1.086881,0.622636,-0.445195,4.264750,3.217005,0.452062,-0.885180,-0.109981,0.031717,-0.417386,0.601359,26.604935,-37.904240,17.488953,,,,,,,
1537456286.185648,1.379971,1.176182,0.689228,-0.216972,3.313536,3.047733,0.377474,-0.923145,-0.072919,0.351133,-0.307141,0.676160,20.010010,-40.647686,20.035522,,,,,,,
1537456286.215515,1.422128,1.265918,0.738699,0.052085,2.680833,3.091415,0.296866,-0.953883,-0.044463,0.390511,-0.299657,0.641081,16.713942,-41.910820,20.861084,,,,,,,
1537456286.245384,1.459887,1.358218,0.762039,0.280036,1.560050,3.136039,0.209685,-0.977490,-0.023352,0.405671,-0.141437,0.447210,10.551725,-43.253807,21.909790,,,,,,,
1537456286.275250,1.532061,1.455142,0.719096,0.613558,0.689804,3.251604,0.115310,-0.993320,-0.004469,0.392915,-0.065915,0.331037,7.725588,-43.610138,22.301941,,,,,,,
1537456286.305117,2.409417,1.542024,-0.143532,0.976927,0.568704,3.172334,0.019234,-0.999586,0.021399,0.420509,-0.024401,0.240686,2.695187,-43.574902,23.450134,,,,,,,
1537456286.334985,-2.209530,1.478818,-1.791775,1.224351,0.578597,3.078706,-0.073740,-0.995773,0.054758,0.489237,-0.137284,0.150640,0.069153,-42.956528,23.981384,,,,,,,
1537456286.364852,-2.080624,1.381996,-1.906176,1.366530,0.592489,2.931770,-0.163812,-0.982230,0.091593,0.495004,-0.137872,0.094992,-4.354324,-41.006077,25.518982,,,,,,,
1537456286.394719,-2.049427,1.288347,-1.925738,1.337572,0.206329,2.740158,-0.247389,-0.960376,0.128363,0.736662,-0.143521,-0.027060,-8.679665,-38.678368,27.414856,,,,,,,
1537456286.424587,-2.053052,1.202556,-1.929211,1.277531,-0.426202,2.393416,-0.318919,-0.932962,0.166948,0.831416,-0.176291,-0.107332,-10.209267,-37.383030,28.055237,,,,,,,
1537456286.454453,-2.074448,1.130714,-1.925843,1.104993,-0.751394,1.887467,-0.373113,-0.904717,0.205606,0.940023,-0.170372,-0.253945,-11.978840,-34.608864,30.207092,,,,,,,
1537456286.484320,-2.105805,1.079371,-1.918906,0.815274,-0.675667,1.040935,-0.405944,-0.881661,0.240588,0.954451,-0.133063,-0.312961,-12.398975,-33.662849,30.793274,,,,,,,
1537456286.514189,-2.133966,1.064892,-1.901648,0.271060,-0.321991,-0.310589,-0.409761,-0.874737,0.258712,1.079820,-0.094639,-0.420501,-12.129944,-32.569107,31.834534,,,,,,,
1537456286.544055,-2.165983,1.088279,-1.865421,-0.048748,0.391382,-1.433582,-0.384221,-0.885830,0.260153,0.962987,-0.076283,-0.337073,-11.709198,-32.547409,32.032776,,,,,,,
1537456286.573922,-2.210368,1.122952,-1.801741,0.540826,0.126544,-1.058906,-0.347438,-0.901383,0.258451,0.607554,-0.175918,0.377047,-10.828396,-33.539936,31.864624,,,,,,,
1537456286.603789,-2.296890,1.096339,-1.838442,-0.399135,-6.271485,1.969468,-0.341625,-0.889541,0.303331,-1.165562,-0.791963,-0.817934,-9.338291,-33.194489,32.724915,,,,,,,
1537456286.633657,-2.295522,1.127946,-1.803137,-0.227569,5.228642,-2.683351,-0.320823,-0.903534,0.284077,-0.370263,-0.995804,0.038128,-7.401791,-33.549492,32.952515,,,,,,,
1537456286.663524,-2.324477,1.180191,-1.679362,0.162693,0.808086,-2.624879,-0.277632,-0.924679,0.260556,0.765791,-0.084370,-0.202283,-8.790558,-34.070206,32.301758,,,,,,,
1537456286.693392,-2.448800,1.220756,-1.569169,-0.224826,-1.059785,-1.087582,-0.219029,-0.939359,0.263877,0.597187,0.289228,0.374246,-6.783184,-35.018608,31.935242,,,,,,,
1537456286.723258,-2.544505,1.245243,-1.510280,-0.225609,-1.573180,-1.125998,-0.179822,-0.947474,0.264494,0.063290,-0.196890,0.003359,-5.371281,-35.271961,32.083862,,,,,,,
1537456286.753125,-2.646596,1.264364,-1.422602,-0.004985,0.240014,-1.145532,-0.143297,-0.953416,0.265451,-0.171889,-0.003310,-0.193506,-2.884426,-35.452942,32.160278,,,,,,,
1537456286.782992,-2.751608,1.281536,-1.301595,-0.049414,0.343214,-1.407731,-0.108442,-0.958455,0.263825,0.022871,0.003072,0.153213,-2.347713,-35.642899,32.260437,,,,,,,
1537456286.812860,-2.879103,1.299873,-1.178788,-0.343100,-0.799442,-1.213347,-0.069444,-0.963524,0.258453,0.164735,0.016137,0.105500,-0.824991,-35.982868,31.997925,,,,,,,
1537456286.842727,-3.026246,1.317864,-1.049279,-0.370264,-0.534417,-1.296084,-0.028801,-0.968183,0.248581,-0.107857,-0.041201,-0.060928,0.353729,-36.468697,31.936523,,,,,,,
1537456286.872594,3.100856,1.329583,-0.884801,-0.333276,0.351701,-1.357826,0.009729,-0.971049,0.238682,-0.038751,-0.023595,-0.016453,2.125584,-36.817123,31.515686,,,,,,,
1537456286.902462,2.924637,1.334317,-0.706521,-0.341228,-0.328824,-1.342876,0.050431,-0.972169,0.228789,0.061096,-0.010986,0.025300,2.734703,-37.027580,31.269714,,,,,,,
1537456286.932328,2.755816,1.332853,-0.540760,-0.360154,-0.048668,-1.188592,0.088691,-0.971825,0.218382,0.075845,-0.022346,0.061770,4.756256,-37.269073,30.863281,,,,,,,
1537456286.962196,2.616643,1.325876,-0.397565,-0.271326,-0.010374,-1.087152,0.121524,-0.970157,0.209830,0.087049,0.002856,-0.034384,5.375446,-37.389214,30.488770,,,,,,,
1537456286.992064,2.494379,1.314436,-0.278507,-0.204768,-0.392878,-1.015531,0.152889,-0.967319,0.202283,0.024387,-0.049359,-0.033338,6.790859,-37.575874,30.283875,,,,,,,
1537456287.021930,2.384421,1.299402,-0.177368,-0.177090,-0.316860,-1.002973,0.184132,-0.963398,0.194832,-0.012990,-0.073223,-0.024620,8.640211,-37.510838,29.967102,,,,,,,
1537456287.051797,2.286855,1.281485,-0.085556,-0.233947,-0.257352,-1.025058,0.215224,-0.958441,0.187270,-0.030989,-0.074534,0.028688,9.456478,-37.444897,29.753113,,,,,,,
1537456287.081665,2.193870,1.260507,0.004021,-0.283765,-0.214656,-1.165388,0.247959,-0.952245,0.178173,-0.090808,-0.089304,0.075169,10.807520,-37.702042,29.424072,,,,,,,
1537456287.111532,2.102660,1.234817,0.091918,-0.354526,-0.269233,-1.266202,0.284151,-0.944088,0.167201,-0.045504,-0.108067,0.014668,11.526367,-37.545387,28.977234,,,,,,,
1537456287.141399,2.017813,1.206062,0.173728,-0.413792,-0.219597,-1.330724,0.321652,-0.934218,0.154194,-0.083050,-0.210099,0.011578,13.548155,-37.563522,28.515320,,,,,,,
1537456287.171266,1.932412,1.171755,0.254714,-0.538214,-0.368780,-1.558172,0.363407,-0.921434,0.137458,-0.201405,-0.243804,0.095162,14.496468,-37.629265,28.240723,,,,,,,
1537456287.201133,1.840431,1.129827,0.338117,-0.738207,-0.609552,-1.787074,0.411395,-0.904338,0.113695,-0.220538,-0.279301,0.112013,17.085915,-37.137199,27.123718,,,,,,,
1537456287.231000,1.731737,1.081975,0.426979,-1.173878,-1.241339,-1.897003,0.463517,-0.882887,0.075250,-0.362015,-0.587709,0.081123,18.698158,-36.896656,26.512695,,,,,,,
1537456287.260868,1.602808,1.025010,0.515882,-1.400995,-2.033271,-2.249526,0.518825,-0.854719,0.016614,-0.881404,-0.943743,0.315783,22.434347,-36.762329,23.761230,,,,,,,
1537456287.290735,1.469011,0.948702,0.599365,-1.798434,-1.894282,-2.708994,0.579723,-0.812660,-0.059212,-1.302928,-1.208764,0.485954,24.723354,-36.704391,21.904602,,,,,,,
1537456287.320602,1.437927,0.834232,0.658982,-1.528809,2.790160,-4.188319,0.665826,-0.740781,-0.088992,-0.192697,-1.068973,0.636798,28.973120,-35.248169,19.209656,,,,,,,
1537456287.350469,1.471045,0.714656,0.690115,-0.927983,-0.554558,-3.113292,0.751564,-0.655358,-0.075219,-0.194328,-0.753486,0.192300,29.740164,-33.909267,19.903442,,,,,,,
1537456287.380336,1.366928,0.682960,0.716767,-0.580936,-3.385171,0.077924,0.759644,-0.631092,-0.157049,-1.438187,-0.347164,0.501791,32.652348,-32.710487,17.344421,,,,,,,
1537456287.410204,1.280389,0.686136,0.727154,-0.019312,-1.926632,0.436743,0.741303,-0.633552,-0.221543,-1.768586,0.238609,0.532502,33.572388,-33.165878,15.275757,,,,,,,
1537456287.440071,1.264094,0.735094,0.735212,0.451643,0.359378,2.385608,0.707153,-0.670657,-0.223952,-0.991363,0.296603,0.290816,33.512249,-34.944580,14.030212,,,,,,,
1537456287.469938,1.260890,0.823787,0.747170,0.762558,0.179600,3.288540,0.647080,-0.733724,-0.207210,-0.763932,0.082922,0.193600,31.687096,-36.613083,14.785461,,,,,,,
1537456287.499805,1.271579,0.944691,0.760465,1.038839,0.950178,4.364573,0.559956,-0.810316,-0.172735,-0.620274,-0.054583,0.157995,26.828379,-40.862278,16.994873,,,,,,,
1537456287.529672,1.299104,1.084574,0.768784,1.295042,1.483579,4.611343,0.450148,-0.884105,-0.125402,-0.220579,-0.215474,0.150396,23.311949,-42.812023,18.638489,,,,,,,
1537456287.559540,1.353083,1.236169,0.756015,1.414174,0.974709,5.045105,0.320664,-0.944533,-0.070937,0.068634,-0.366258,0.220534,15.158504,-45.326420,22.590454,,,,,,,
1537456287.589407,1.491692,1.392994,0.645808,1.886264,1.499615,5.113081,0.176313,-0.984235,-0.013976,0.551333,-0.380755,0.232620,5.839617,-45.855015,26.515869,,,,,,,
1537456287.619274,2.758861,1.519122,-0.603504,2.052687,-0.122245,5.301967,0.019290,-0.998665,0.047916,0.660397,-0.365272,-0.017902,1.350004,-44.829575,28.928833,,,,,,,
1537456287.649141,-2.290391,1.397817,-1.856025,2.209388,-0.327441,4.765283,-0.129445,-0.985076,0.113439,0.944493,-0.352845,-0.037344,-5.111931,-41.410828,33.399536,,,,,,,
1537456287.679008,-2.177264,1.253403,-1.978532,2.187254,-0.106505,4.072776,-0.256434,-0.950052,0.177882,1.052866,-0.582571,-0.277949,-7.603863,-39.113255,35.689392,,,,,,,
1537456287.708876,-2.152644,1.135624,-1.993549,1.924410,0.745542,2.888720,-0.352196,-0.906798,0.231679,1.273324,-0.708666,-0.480153,-11.692219,-34.249798,39.102417,,,,,,,
1537456287.738743,-2.128419,1.057916,-1.986627,1.219479,1.078943,1.458011,-0.416357,-0.871335,0.259658,1.560995,-0.385211,-0.666579,-13.049187,-32.225838,39.841431,,,,,,,
1537456287.768610,-2.109472,1.039381,-1.966467,0.247384,1.753213,-0.380836,-0.434991,-0.862091,0.259964,1.679498,-0.357193,-0.555253,-15.211788,-30.140408,40.326904,,,,,,,
1537456287.798477,-2.070127,1.087085,-1.916590,-0.239232,2.911330,-2.984199,-0.408284,-0.885275,0.222692,1.638310,-0.088587,-0.037038,-16.372433,-30.438961,39.517395,,,,,,,
1537456287.828345,-2.139535,1.178084,-1.792283,0.350464,-0.648931,-2.084240,-0.322453,-0.923874,0.206108,1.220173,-0.401275,0.898872,-16.297070,-33.131920,37.879639,,,,,,,
1537456287.858212,-2.291139,1.141072,-1.855343,-0.310629,-7.305731,2.478599,-0.313123,-0.909081,0.274821,-0.699404,-1.195412,-0.478464,-12.332996,-33.117561,39.931580,,,,,,,
1537456287.888079,-2.264559,1.170433,-1.823190,0.025908,3.288225,-3.079490,-0.299660,-0.920920,0.249221,-0.936134,-0.512812,-0.738998,-9.369083,-33.267719,40.877808,,,,,,,
1537456287.917946,-2.347534,1.225119,-1.673427,0.217920,2.844315,-2.404538,-0.241658,-0.940846,0.237508,0.738438,0.233662,0.274882,-9.467587,-33.431000,40.355957,,,,,,,
1537456287.947813,-2.438860,1.270548,-1.533722,-0.166689,-1.023481,-1.621716,-0.191149,-0.955263,0.225686,0.748141,-0.107313,-0.075204,-9.872112,-34.670937,39.433044,,,,,,,
1537456287.977681,-2.587745,1.299986,-1.443906,-0.316295,-1.885691,-1.111856,-0.140702,-0.963555,0.227522,0.291093,-0.111885,-0.084409,-7.777035,-35.300003,39.748413,,,,,,,
1537456288.007548,-2.718852,1.318808,-1.337579,-0.021299,-0.040662,-1.262579,-0.102290,-0.968419,0.227380,-0.272313,-0.058849,-0.104990,-3.778276,-35.674271,40.255859,,,,,,,
1537456288.037415,-2.857999,1.334811,-1.180129,-0.128524,0.290396,-1.394415,-0.065419,-0.972284,0.224461,-0.032756,0.014277,0.113521,-3.419994,-35.879425,40.088318,,,,,,,
1537456288.067282,-3.023915,1.349609,-1.020064,-0.312876,-0.823474,-1.233259,-0.025757,-0.975638,0.217871,0.066849,0.024481,0.128702,-1.563942,-36.201866,39.851746,,,,,,,
1537456288.097149,3.052851,1.360639,-0.833555,-0.367799,-0.472962,-1.444470,0.018488,-0.977998,0.207792,-0.114268,-0.050017,-0.007779,-0.079969,-36.466953,39.775330,,,,,,,
1537456288.127017,2.833234,1.363339,-0.612175,-0.421354,0.089946,-1.484558,0.062512,-0.978558,0.196258,-0.000027,0.009106,0.065919,1.978401,-37.038536,39.247864,,,,,,,
1537456288.156885,2.626996,1.359806,-0.400318,-0.475415,-0.003206,-1.337642,0.103077,-0.977824,0.182305,0.054501,-0.000417,0.112952,2.944942,-37.469505,39.074951,,,,,,,
1537456288.186752,2.443229,1.347590,-0.217097,-0.390651,-0.130329,-1.258509,0.142325,-0.975193,0.169536,0.125589,-0.050762,-0.126308,5.216032,-38.034756,38.687866,,,,,,,
1537456288.216619,2.299269,1.330447,-0.076546,-0.311412,-0.211135,-1.161394,0.177625,-0.971255,0.158472,0.014422,-0.039030,-0.013605,7.120739,-38.175453,38.111572,,,,,,,
1537456288.246486,2.183249,1.309189,0.038490,-0.324887,-0.077591,-1.109640,0.211624,-0.965975,0.148682,0.049790,-0.106092,0.008285,8.005899,-38.394485,38.053467,,,,,,,
1537456288.276354,2.079639,1.286840,0.135378,-0.370899,-0.420994,-1.166889,0.244662,-0.959954,0.136483,-0.101459,-0.151954,0.080024,9.890951,-38.319439,37.702454,,,,,,,
1537456288.306221,1.971633,1.255660,0.238230,-0.543805,-0.229194,-1.566291,0.285378,-0.950754,0.120937,-0.227974,-0.162466,0.056248,11.012409,-38.217426,37.298950,,,,,,,
1537456288.336088,1.857280,1.212395,0.350417,-0.792913,-0.257553,-1.919534,0.336480,-0.936459,0.099123,-0.216165,-0.263065,0.098738,13.705976,-38.356712,36.283508,,,,,,,
1537456288.365955,1.742582,1.158755,0.457528,-0.993490,-0.804372,-2.161492,0.394585,-0.916305,0.068459,-0.227715,-0.413544,0.025566,15.509989,-38.119160,35.581238,,,,,,,
1537456288.395822,1.611127,1.095837,0.561262,-1.466468,-1.667548,-2.244445,0.456930,-0.889311,0.018438,-0.325369,-0.514360,-0.004736,20.045517,-38.190376,33.431030,,,,,,,
1537456288.425690,1.464292,1.023914,0.659167,-1.783095,-2.201706,-2.545824,0.517080,-0.854150,-0.055280,-0.925161,-1.185965,0.506452,22.736057,-38.174187,31.578430,,,,,,,
1537456288.455557,1.329354,0.930543,0.736225,-2.150486,-1.776536,-3.038765,0.580070,-0.801944,-0.142840,-1.594566,-1.311993,0.687243,29.288120,-37.138664,26.884644,,,,,,,
1537456288.485424,1.338887,0.804651,0.791708,-1.977706,4.569592,-4.354851,0.674800,-0.720589,-0.159359,-0.370769,-1.019401,0.706982,31.474060,-35.937752,25.284058,,,,,,,
1537456288.515291,1.454892,0.671081,0.826424,-1.418624,2.184499,-3.599374,0.777895,-0.621833,-0.090567,-0.079729,-0.903680,0.212714,31.208385,-32.053040,27.175537,,,,,,,
1537456288.545158,1.366478,0.629247,0.869024,-1.091656,-2.963799,0.013957,0.791654,-0.588536,-0.164038,-1.211835,-0.293208,0.519369,32.440239,-31.087383,25.825745,,,,,,,
1537456288.575026,1.304170,0.637542,0.900598,-0.629309,-0.820166,0.812279,0.775168,-0.595222,-0.211721,-1.618093,0.371208,0.568075,34.478626,-31.004976,21.054504,,,,,,,
1537456288.604893,1.269824,0.684214,0.934332,-0.274299,-0.289587,2.332312,0.740082,-0.632064,-0.229723,-0.863571,0.295700,0.247072,34.366665,-31.933645,19.388367,,,,,,,
1537456288.634760,1.229741,0.761444,0.971486,0.060705,-0.456523,3.071604,0.682148,-0.689967,-0.242111,-0.854969,0.130901,0.197387,32.083115,-34.772888,16.914734,,,,,,,
1537456288.664627,1.228670,0.867906,1.010948,0.540744,2.018796,4.091995,0.608960,-0.762977,-0.216870,-0.547360,0.078269,0.357022,30.106724,-36.344013,16.353210,,,,,,,
1537456288.694494,1.268520,1.002496,1.046302,0.878291,2.214108,4.716226,0.513798,-0.842817,-0.160219,-0.280353,-0.081484,0.348390,23.283195,-40.235085,17.326172,,,,,,,
1537456288.724362,1.288833,1.154469,1.074810,1.074991,0.618570,5.269134,0.388432,-0.914580,-0.112522,0.323588,-0.302186,0.390613,19.238283,-41.903046,17.947266,,,,,,,
1537456288.754229,1.225656,1.320233,1.107885,1.569452,-1.763142,5.325087,0.233325,-0.968773,-0.083887,0.315107,-0.259239,0.294047,11.249723,-43.699669,18.221924,,,,,,,
1537456288.784096,1.238826,1.484120,1.065853,2.401251,0.106288,4.923025,0.081832,-0.996246,-0.028210,0.234544,-0.214081,0.242459,4.106352,-43.639450,19.530945,,,,,,,
1537456288.813963,-2.236450,1.489531,-1.717470,2.681683,0.898779,4.875886,-0.063840,-0.996700,0.050127,0.705609,-0.500142,-0.006136,0.121105,-42.457008,20.689209,,,,,,,
1537456288.843830,-2.128429,1.327164,-1.806693,2.719414,0.758051,4.527555,-0.204685,-0.970468,0.127653,0.919880,-0.617285,-0.151976,-7.316441,-39.154747,23.267029,,,,,,,
1537456288.873698,-2.118910,1.186074,-1.800282,2.360981,0.056251,3.511033,-0.320324,-0.926903,0.195562,1.311154,-0.761406,-0.228674,-10.472649,-36.904835,24.314453,,,,,,,
1537456288.903565,-2.153141,1.077929,-1.788009,1.780774,-0.839235,2.599121,-0.395166,-0.880980,0.260227,1.616480,-0.802827,-0.515644,-13.618786,-32.521164,26.659546,,,,,,,
1537456288.933432,-2.153469,1.011996,-1.806790,0.421230,-0.078842,1.081016,-0.442689,-0.847892,0.291729,1.665482,-0.504678,-0.953717,-14.836697,-31.379990,27.157898,,,,,,,
1537456288.963299,-2.146487,1.036984,-1.783261,-0.316950,1.183510,-2.387216,-0.426806,-0.860873,0.277009,1.773363,-0.131238,-0.462235,-15.395576,-31.101526,26.469788,,,,,,,
1537456288.993167,-2.205276,1.095824,-1.691603,0.392350,-0.211084,-1.435645,-0.368312,-0.889305,0.271077,0.899379,-0.343284,1.206859,-14.947319,-32.178795,26.014343,,,,,,,
1537456289.023034,-2.345747,1.102852,-1.696266,-0.514127,-5.164268,-0.417938,-0.322256,-0.892497,0.315592,-1.102213,-1.241795,-0.768274,-10.511909,-32.779785,27.854553,,,,,,,
1537456289.052901,-2.373294,1.164754,-1.571080,-0.036834,4.618054,-2.870575,-0.274474,-0.918691,0.284025,0.224181,-0.519663,-0.515929,-9.835560,-33.511234,27.461792,,,,,,,
1537456289.082768,-2.448722,1.210677,-1.411857,0.207678,1.543925,-2.666806,-0.225085,-0.935855,0.271131,0.998447,0.137042,0.111148,-10.831741,-34.821983,26.083130,,,,,,,
1537456289.112635,-2.565076,1.242420,-1.290053,-0.118484,-1.352082,-1.139024,-0.175800,-0.946567,0.270377,0.444232,0.081775,0.005456,-10.258629,-35.461624,25.731567,,,,,,,
1537456289.142503,-2.699738,1.262215,-1.208063,-0.095770,-1.727336,-0.998021,-0.129870,-0.952765,0.274538,0.186861,-0.142404,-0.164965,-7.369434,-35.972130,26.068542,,,,,,,
1537456289.172370,-2.802747,1.273213,-1.114716,0.043096,-0.008148,-1.082679,-0.097462,-0.956048,0.276536,-0.186535,-0.061317,-0.093385,-6.220367,-36.269722,26.375183,,,,,,,
1537456289.202237,-2.920555,1.286041,-0.999522,-0.243234,-0.365373,-1.165693,-0.061590,-0.959731,0.274087,0.055334,0.035078,0.252387,-4.685028,-36.511284,26.463867,,,,,,,
1537456289.232104,-3.062230,1.301347,-0.877506,-0.402376,-1.074362,-1.338729,-0.021104,-0.963918,0.265362,-0.163420,0.043340,0.060733,-3.573732,-36.840721,26.248596,,,,,,,
1537456289.261971,3.058099,1.312189,-0.722059,-0.344960,0.114691,-1.330517,0.021327,-0.966747,0.254844,-0.007594,-0.053562,-0.026970,-1.256641,-37.472134,25.896118,,,,,,,
1537456289.291839,2.900393,1.315682,-0.563352,-0.341838,-0.391802,-1.275429,0.060280,-0.967634,0.245051,0.085121,0.013243,0.044531,-0.504353,-37.735374,25.636780,,,,,,,
1537456289.321706,2.742194,1.314419,-0.418056,-0.341765,-0.642488,-1.172817,0.098607,-0.967315,0.233620,0.003230,-0.053269,-0.020073,1.291462,-38.457661,25.101562,,,,,,,
1537456289.351573,2.590828,1.306004,-0.275199,-0.296621,-0.196680,-1.242818,0.136963,-0.965147,0.223009,-0.041092,-0.035006,-0.022752,2.200762,-38.448135,25.070312,,,,,,,
1537456289.381440,2.463678,1.292413,-0.144388,-0.326272,-0.032985,-1.203529,0.172348,-0.961501,0.214038,-0.003006,-0.027482,0.091778,4.211878,-38.663239,24.637878,,,,,,,
1537456289.411308,2.344388,1.274899,-0.026843,-0.311162,-0.222194,-1.222006,0.208611,-0.956541,0.203742,0.022697,-0.049303,0.047524,5.687054,-38.773460,24.096130,,,,,,,
1537456289.441175,2.228590,1.253207,0.078655,-0.369887,-0.554914,-1.314068,0.247118,-0.949991,0.190918,-0.071688,-0.151236,-0.034027,6.742260,-38.978401,24.142212,,,,,,,
1537456289.471042,2.112311,1.223338,0.189377,-0.512537,-0.190364,-1.674952,0.291793,-0.940241,0.175511,-0.229994,-0.189123,0.059597,9.146517,-39.239677,23.346130,,,,,,,
1537456289.500909,1.996467,1.183093,0.306532,-0.708024,-0.360561,-1.950185,0.344326,-0.925780,0.156115,-0.156735,-0.296388,0.084013,10.284552,-39.072067,23.064392,,,,,,,
1537456289.530776,1.876173,1.133909,0.418693,-0.886360,-0.624207,-2.199817,0.403545,-0.906073,0.127212,-0.282405,-0.402460,0.097183,13.125443,-39.418167,21.623230,,,,,,,
1537456289.560644,1.760743,1.072346,0.522724,-1.159377,-0.963324,-2.486630,0.469467,-0.878324,0.090262,-0.358978,-0.452746,0.084924,14.909566,-39.226608,20.870483,,,,,,,
1537456289.590511,1.619149,1.006600,0.618453,-1.457108,-2.888845,-2.335346,0.534112,-0.845019,0.025846,-0.585626,-1.032606,0.294161,19.468657,-38.953522,18.348450,,,,,,,
1537456289.620378,1.458964,0.927994,0.700554,-1.776269,-2.321853,-2.716676,0.595696,-0.800419,-0.066898,-1.544366,-1.347759,0.483844,22.280474,-38.819565,16.074463,,,,,,,
1537456289.650245,1.434086,0.812169,0.759925,-1.658268,3.691572,-4.315459,0.681507,-0.725781,-0.093754,-0.355304,-0.960330,0.604953,26.297215,-37.707481,13.311951,,,,,,,
1537456289.680112,1.520281,0.685051,0.800845,-1.192191,1.021332,-3.451203,0.773399,-0.632713,-0.039101,0.028420,-0.972115,0.056573,27.254976,-36.452240,14.322266,,,,,,,
1537456289.709980,1.399886,0.640603,0.840327,-0.984899,-3.778319,-0.320689,0.790054,-0.597679,-0.136358,-1.155792,-0.327247,0.434958,30.439178,-35.104347,11.316162,,,,,,,
1537456289.739847,1.322240,0.640500,0.865018,-0.461379,-1.562154,0.503049,0.777157,-0.597596,-0.197246,-1.682110,0.328218,0.558864,31.242374,-35.319679,9.113586,,,,,,,
1537456289.769714,1.269469,0.680651,0.887618,-0.040173,-1.030997,2.056239,0.742147,-0.629299,-0.230652,-0.944723,0.287319,0.352585,30.604427,-37.285984,6.633667,,,,,,,
1537456289.799581,1.215523,0.754323,0.912089,0.395902,-1.479945,2.851688,0.683227,-0.684796,-0.253488,-0.720016,0.138607,0.212060,29.265469,-38.772125,6.127197,,,,,,,
1537456289.829448,1.155870,0.857909,0.939000,0.956351,-1.012341,3.819965,0.598524,-0.756477,-0.263650,-0.659254,0.061775,0.196023,25.717653,-42.190384,5.091736,,,,,,,
1537456289.859316,1.129709,0.982681,0.968899,1.345086,0.717298,4.154626,0.501693,-0.831988,-0.236854,-0.525588,-0.096967,0.157218,22.990044,-43.672607,5.419495,,,,,,,
1537456289.889183,1.161803,1.119348,0.995099,1.573919,2.465777,4.499251,0.400285,-0.899816,-0.173497,-0.068040,-0.265452,0.210073,15.783583,-46.480366,7.921082,,,,,,,
1537456289.919050,1.216428,1.268548,1.013530,1.700292,2.142275,4.877410,0.279170,-0.954670,-0.103289,0.126713,-0.309460,0.179507,11.308535,-47.531384,9.756897,,,,,,,
1537456289.948917,1.302663,1.429237,0.984369,1.899669,1.802889,5.234337,0.136045,-0.989997,-0.037378,0.484362,-0.314690,0.264948,1.942863,-48.023846,12.752380,,,,,,,
1537456289.978785,-2.376226,1.539212,-1.591840,2.002517,0.242813,5.210803,-0.021872,-0.999501,0.022766,0.865943,-0.461177,0.093460,-7.459270,-45.737270,15.592529,,,,,,,
1537456290.008652,-2.064162,1.379805,-1.910202,2.395032,-0.093490,4.693434,-0.167193,-0.981816,0.089903,1.063922,-0.570552,-0.007246,-11.494793,-44.099899,17.078918,,,,,,,
1537456290.038519,-2.076899,1.240077,-1.893295,2.269676,0.129122,3.513307,-0.284016,-0.945809,0.157417,1.412663,-0.617362,-0.338325,-17.444786,-39.391266,20.668030,,,,,,,
1537456290.068386,-2.101316,1.135171,-1.869199,1.740851,-0.087991,2.465959,-0.363974,-0.906607,0.213513,1.659048,-0.633448,-0.532269,-19.537472,-37.314049,21.915344,,,,,,,
1537456290.098253,-2.102375,1.071068,-1.858266,0.841814,0.685648,1.080966,-0.413063,-0.877713,0.242897,1.731529,-0.353580,-0.746697,-22.188068,-33.935226,23.600159,,,,,,,
1537456290.128121,-2.072996,1.071155,-1.842448,-0.085047,2.301014,-1.167187,-0.419953,-0.877755,0.230622,1.852113,-0.300468,-0.425492,-22.986710,-33.714691,23.476440,,,,,,,
1537456290.157987,-2.088782,1.116147,-1.778471,0.237762,-0.648665,-1.237912,-0.381540,-0.898415,0.217436,0.877557,-0.488044,1.159914,-23.021126,-35.038952,21.875244,,,,,,,
